mavpackettype,TimeUS,I,GyrX,GyrY,GyrZ,AccX,AccY,AccZ,EG,EA,T,GH,AH,GHz,AHz,_t,t
IMU,1745135,0,3.5089922221231973e-06,3.0766796044190414e-06,-2.952220711449627e-05,-0.06385264545679092,-0.05386681109666824,-9.817510604858398,0,0,25.10777473449707,1,1,999,999,1768451510.7005012,0.0
IMU,1745135,1,-7.889029802754521e-05,0.00013401050819084048,-8.098428224911913e-05,-0.05621141940355301,0.031023306772112846,-9.818758010864258,0,0,25.10784149169922,1,1,760,799,1768451510.7005012,0.0
IMU,1765127,1,-3.828822082141414e-05,0.00010524473327677697,-0.000320178281981498,0.7774060964584351,-0.029300086200237274,-9.818117141723633,0,0,25.109167098999023,1,1,760,799,1768451510.720493,0.019992
IMU,1765127,0,4.8410733143100515e-05,2.887937989726197e-05,-9.562143532093614e-05,0.6721687316894531,-0.038002077490091324,-9.817480087280273,0,0,25.109102249145508,1,1,999,999,1768451510.720493,0.019992
IMU,1785119,1,-3.8903985114302486e-05,-4.075473407283425e-05,-1.4710847608512267e-05,2.186619758605957,0.04003431275486946,-9.816665649414062,0,0,25.11049461364746,1,1,760,799,1768451510.7404852,0.039984
IMU,1785119,0,2.7571720693231327e-06,7.787995127728209e-05,-7.76036104070954e-05,2.209608793258667,-0.02237749472260475,-9.817366600036621,0,0,25.110427856445312,1,1,999,999,1768451510.7404852,0.039984
IMU,1805111,1,0.0001467681140638888,-0.00020980805857107043,9.237124322680756e-05,3.1454410552978516,-0.014566907659173012,-9.815343856811523,0,0,25.111820220947266,1,1,760,799,1768451510.760477,0.059976
IMU,1805111,0,5.608841456705704e-05,1.7486840079072863e-05,-8.39079002616927e-05,3.075808048248291,-0.008251486346125603,-9.818517684936523,0,0,25.111820220947266,1,1,999,999,1768451510.760477,0.059976
IMU,1825103,1,0.0002884084533434361,0.00027954080724157393,-2.776059955067467e-05,3.5545196533203125,0.005012971814721823,-9.835336685180664,0,0,25.11314582824707,1,1,760,799,1768451510.7804692,0.079968
IMU,1825103,0,6.270805170061067e-05,4.6845216274959967e-05,-3.0487210096907802e-05,3.5462656021118164,0.028340108692646027,-9.836750984191895,0,0,25.11314582824707,1,1,999,999,1768451510.7804692,0.079968
IMU,1845095,0,-2.6372446882305667e-05,5.93639379076194e-05,-0.0001074144383892417,3.6198909282684326,0.07145768404006958,-9.83626937866211,0,0,25.114471435546875,1,1,999,999,1768451510.800461,0.09996
IMU,1845095,1,2.8619162549148314e-05,6.064120680093765e-05,9.833922376856208e-05,3.6089110374450684,0.06754952669143677,-9.836374282836914,0,0,25.114471435546875,1,1,760,799,1768451510.800461,0.09996
IMU,1865087,0,7.464217924280092e-05,-5.160777072887868e-05,-8.201056334655732e-05,3.371587038040161,-0.06608910858631134,-9.829986572265625,0,0,25.11579704284668,1,1,999,999,1768451510.8204532,0.119952
IMU,1865087,1,2.8648762963712215e-05,8.120215352391824e-05,3.4005031920969486e-05,3.3570146560668945,-0.0730767697095871,-9.830142974853516,0,0,25.11579704284668,1,1,760,799,1768451510.8204532,0.119952
IMU,1885079,1,1.7972330169868656e-05,9.100216266233474e-05,-0.00025713100330904126,2.966171979904175,0.0036979566793888807,-9.824322700500488,0,0,25.117122650146484,1,1,760,799,1768451510.840445,0.139944
IMU,1885079,0,1.145222813647706e-05,5.935225999564864e-05,-0.00011285537766525522,2.977081060409546,-0.017830366268754005,-9.826292991638184,0,0,25.117122650146484,1,1,999,999,1768451510.840445,0.139944
IMU,1905071,0,3.9927995203470346e-06,2.3089416572474875e-05,-5.635363049805164e-05,2.4294381141662598,-0.006646804977208376,-9.822895050048828,0,0,25.11844825744629,1,1,999,999,1768451510.8604372,0.159936
IMU,1905071,1,9.628288353269454e-06,0.00019078300101682544,-0.00016014704306144267,2.4333086013793945,0.008195002563297749,-9.824302673339844,0,0,25.11844825744629,1,1,760,799,1768451510.8604372,0.159936
IMU,1925063,0,0.00011937026283703744,-3.2457792258355767e-05,-3.5766701330430806e-05,1.8032867908477783,-0.013515460304915905,-9.819557189941406,0,0,25.119773864746094,1,1,999,999,1768451510.880429,0.179928
IMU,1925063,1,0.00014971790369600058,0.00010315480903955176,-9.566056542098522e-05,1.7851593494415283,-0.0036117983981966972,-9.819598197937012,0,0,25.119773864746094,1,1,760,799,1768451510.880429,0.179928
IMU,1945055,0,9.081688767764717e-05,1.7302127162110992e-05,-3.341978299431503e-05,1.10636305809021,-0.00914742797613144,-9.817574501037598,0,0,25.1210994720459,1,1,999,999,1768451510.9004211,0.19992
IMU,1945055,1,0.00012923740723636,-0.0002694407885428518,-0.0001615470100659877,1.1071386337280273,0.014992140233516693,-9.816481590270996,0,0,25.1210994720459,1,1,760,799,1768451510.9004211,0.19992
IMU,1965047,0,-1.4376165381690953e-05,3.9214333810377866e-05,-2.0811890863114968e-05,0.4884055256843567,0.011441558599472046,-9.814430236816406,0,0,25.122425079345703,1,1,999,999,1768451510.920413,0.219912
IMU,1965047,1,4.99133238918148e-05,-0.00016850230167619884,7.55611908971332e-05,0.47806501388549805,0.011860228143632412,-9.81392765045166,0,0,25.122425079345703,1,1,760,799,1768451510.920413,0.219912
IMU,1985039,0,4.5645690988749266e-05,0.0001024753728415817,-2.8025182473356836e-05,-0.11570222675800323,-0.021094337105751038,-9.812808990478516,0,0,25.123748779296875,1,1,999,999,1768451510.9404051,0.239904
IMU,1985039,1,-1.4019221453054342e-05,-5.4789350542705506e-05,-0.00012444221647456288,-0.11494039744138718,-0.01960757002234459,-9.81018352508545,0,0,25.123748779296875,1,1,760,799,1768451510.9404051,0.239904
IMU,2005031,0,5.149253047420643e-05,5.8655925386119634e-05,8.456591785943601e-06,-0.6469614505767822,-0.001994484104216099,-9.811361312866211,0,0,25.12507438659668,1,1,999,999,1768451510.9603972,0.259896
IMU,2005031,1,-1.5073478607519064e-05,-1.8224414816359058e-05,-2.5765353711904027e-05,-0.6636185646057129,0.003203518223017454,-9.810409545898438,0,0,25.12507438659668,1,1,760,799,1768451510.9603972,0.259896
IMU,2025023,0,-6.017412943037925e-06,2.8959348128410056e-05,-2.7558371584746055e-05,-1.0985231399536133,0.003005641745403409,-9.810428619384766,0,0,25.12639808654785,1,1,999,999,1768451510.980389,0.279888
IMU,2025023,1,0.00023322108609136194,-2.5117198674706742e-05,1.0863790521398187e-05,-1.1057255268096924,0.001740786014124751,-9.81324291229248,0,0,25.12639808654785,1,1,760,799,1768451510.980389,0.279888
IMU,2045015,0,-8.028435331652872e-06,6.38767596683465e-05,7.36662550480105e-05,-1.4831808805465698,-0.0030471025966107845,-9.809833526611328,0,0,25.127723693847656,1,1,999,999,1768451511.0003812,0.29988
IMU,2045015,1,0.00011198921856703237,0.00010309379285899922,0.00010047302203020081,-1.4871087074279785,-0.00025987095432356,-9.812292098999023,0,0,25.127723693847656,1,1,760,799,1768451511.0003812,0.29988
IMU,2065007,0,9.155557199846953e-05,2.817628592310939e-05,6.390580529114231e-05,-1.7627127170562744,-0.00010043010115623474,-9.810698509216309,0,0,25.12904930114746,1,1,999,999,1768451511.020373,0.319872
IMU,2065007,1,0.0001471320865675807,3.274748087278567e-05,-6.559926259797066e-05,-1.7608903646469116,-0.003547783475369215,-9.811271667480469,0,0,25.12904930114746,1,1,760,799,1768451511.020373,0.319872
IMU,2084999,1,-0.00013140469673089683,0.00010149649460799992,6.516035500681028e-05,-1.9581108093261719,-0.016746090725064278,-9.810707092285156,0,0,25.130306243896484,1,1,760,799,1768451511.0403652,0.339864
IMU,2084999,0,-1.2695853001787327e-05,-4.521102528087795e-05,4.1058763599721715e-05,-1.9597822427749634,-0.0194863211363554,-9.811063766479492,0,0,25.130306243896484,1,1,999,999,1768451511.0403652,0.339864
IMU,2104991,0,2.205927376053296e-05,4.5000513637205586e-05,3.922054384020157e-05,-2.0760722160339355,-0.004116038791835308,-9.811201095581055,0,0,25.13163185119629,1,1,999,999,1768451511.060357,0.359856
IMU,2104991,1,0.00024663456133566797,7.76723463786766e-05,0.0001743445172905922,-2.079688310623169,-0.006512661464512348,-9.809521675109863,0,0,25.13163185119629,1,1,760,799,1768451511.060357,0.359856
IMU,2124983,0,-6.97273117111763e-06,1.1223594810871873e-05,8.903841080609709e-05,-2.122241973876953,-0.005475228186696768,-9.811384201049805,0,0,25.132957458496094,1,1,999,999,1768451511.0803492,0.379848
IMU,2124983,1,0.00018846220336854458,-0.00011056519724661484,-1.959029759746045e-05,-2.1232376098632812,-0.009177349507808685,-9.810827255249023,0,0,25.132957458496094,1,1,760,799,1768451511.0803492,0.379848
IMU,2144975,0,2.306170244992245e-05,-4.957406781613827e-05,8.670680108480155e-05,-2.095066785812378,-0.002141551813110709,-9.812010765075684,0,0,25.134281158447266,1,1,999,999,1768451511.100341,0.39984
IMU,2144975,1,0.00011250870011281222,-0.00017077091615647078,-0.00016852245607879013,-2.0921647548675537,-0.0001130877499235794,-9.813043594360352,0,0,25.134281158447266,1,1,760,799,1768451511.100341,0.39984
IMU,2164967,0,1.4722567357239313e-05,-4.464864559849957e-06,6.33766467217356e-05,-2.017056703567505,-0.003842780366539955,-9.813775062561035,0,0,25.135604858398438,1,1,999,999,1768451511.1203332,0.419832
IMU,2164967,1,-8.38315681903623e-05,-6.11329305684194e-05,6.068799484637566e-05,-2.014965057373047,-0.002111484995111823,-9.813409805297852,0,0,25.135604858398438,1,1,760,799,1768451511.1203332,0.419832
IMU,2184959,0,2.638206751726102e-05,6.493055843748152e-05,7.904221274657175e-05,-1.8929553031921387,0.006860001012682915,-9.813314437866211,0,0,25.13692855834961,1,1,999,999,1768451511.140325,0.439824
IMU,2184959,1,0.0002100901328958571,6.90855595166795e-05,0.00013034723815508187,-1.8904345035552979,0.009673132561147213,-9.81447982788086,0,0,25.13692855834961,1,1,760,799,1768451511.140325,0.439824
IMU,2204951,0,4.227699901093729e-05,4.579216329148039e-05,5.878584488527849e-05,-1.7324509620666504,0.0026239193975925446,-9.813512802124023,0,0,25.13825225830078,1,1,999,999,1768451511.1603172,0.459816
IMU,2204951,1,0.00025519554037600756,-7.572082540718839e-05,-6.268685683608055e-05,-1.7299795150756836,0.002948169596493244,-9.811779975891113,0,0,25.13825225830078,1,1,760,799,1768451511.1603172,0.459816
IMU,2224943,1,-9.155410225503147e-05,-5.327936742105521e-05,-0.0001223337894771248,-1.5472478866577148,-0.0019187536090612411,-9.813528060913086,0,0,25.139577865600586,1,1,760,799,1768451511.180309,0.479808
IMU,2224943,0,-4.958642421115655e-07,4.605751746566966e-05,0.0001367774821119383,-1.5508809089660645,-0.002755470108240843,-9.815673828125,0,0,25.139577865600586,1,1,999,999,1768451511.180309,0.479808
IMU,2244935,0,2.7043404770665802e-05,7.751371413178276e-06,-3.317916707601398e-05,-1.355926752090454,0.000402446195948869,-9.815771102905273,0,0,25.140901565551758,1,1,999,999,1768451511.2003012,0.4998
IMU,2244935,1,0.00010299252608092502,-0.00021846745221409947,-0.00013874632713850588,-1.3528878688812256,0.0011949936160817742,-9.815448760986328,0,0,25.140901565551758,1,1,760,799,1768451511.2003012,0.4998
IMU,2264927,1,0.00019944275845773518,-9.717931970953941e-05,-4.6853347157593817e-05,-1.1483246088027954,-0.0030935609247535467,-9.817211151123047,0,0,25.14222526550293,1,1,760,799,1768451511.220293,0.519792
IMU,2264927,0,3.694806946441531e-05,4.3613817979348823e-07,-2.4000124540179968e-05,-1.154158115386963,-0.0012781987898051739,-9.81671142578125,0,0,25.14222526550293,1,1,999,999,1768451511.220293,0.519792
IMU,2284919,1,0.00017755862791091204,-2.8384964025462978e-05,0.00014701447798870504,-0.9438617825508118,-0.002194041386246681,-9.817922592163086,0,0,25.1435489654541,1,1,760,799,1768451511.2402852,0.539784
IMU,2284919,0,-4.998561962565873e-06,-1.943888491950929e-05,1.5979392628651112e-05,-0.9493071436882019,-0.0021116638090461493,-9.81766414642334,0,0,25.1435489654541,1,1,999,999,1768451511.2402852,0.539784
IMU,2304911,0,0.00011987228208454326,-1.663472539803479e-05,4.667571192840114e-05,-0.758081316947937,0.0007300476427190006,-9.817282676696777,0,0,25.144872665405273,1,1,999,999,1768451511.260277,0.559776
IMU,2304911,1,0.00014596417895518243,-2.911970568675315e-06,5.9061152569483966e-05,-0.753425121307373,0.0021013044752180576,-9.819342613220215,0,0,25.144872665405273,1,1,760,799,1768451511.260277,0.559776
IMU,2324903,0,2.7357704311725684e-05,-3.207043482689187e-05,-8.10949131846428e-06,-0.578900933265686,-0.0008762984070926905,-9.81711483001709,0,0,25.146196365356445,1,1,999,999,1768451511.2802691,0.579768
IMU,2324903,1,-0.00010634987847879529,9.95569716906175e-05,-6.671756273135543e-05,-0.578450083732605,-0.0005873011541552842,-9.816549301147461,0,0,25.146196365356445,1,1,760,799,1768451511.2802691,0.579768
IMU,2344895,1,0.00016244646394625306,0.00014904109411872923,1.808348679332994e-05,-0.41047799587249756,0.0011657931609079242,-9.819869995117188,0,0,25.147520065307617,1,1,760,799,1768451511.300261,0.59976
IMU,2344895,0,-2.3468859581043944e-05,2.0383928131195717e-05,3.324554563732818e-05,-0.41454431414604187,-9.049817163031548e-05,-9.8173246383667,0,0,25.147520065307617,1,1,999,999,1768451511.300261,0.59976
IMU,2364887,0,-1.0863946954486892e-05,7.526045374106616e-05,3.047488644369878e-05,-0.2697784900665283,0.0005312602734193206,-9.818690299987793,0,0,25.14884376525879,1,1,999,999,1768451511.3202531,0.619752
IMU,2364887,1,0.00025242241099476814,3.717209619935602e-05,0.0002410907909506932,-0.2666415274143219,0.0007071050349622965,-9.81719970703125,0,0,25.14884376525879,1,1,760,799,1768451511.3202531,0.619752
IMU,2384879,1,-5.9822377806995064e-05,0.00010904966620728374,-5.7512239436618984e-05,-0.14340095221996307,-0.0011107214959338307,-9.820566177368164,0,0,25.15016746520996,1,1,760,799,1768451511.3402452,0.639744
IMU,2384879,0,-8.721949598111678e-06,7.51493644202128e-05,5.2035480621270835e-05,-0.14538615942001343,-0.0021194093860685825,-9.818866729736328,0,0,25.15016746520996,1,1,999,999,1768451511.3402452,0.639744
IMU,2404871,1,3.858886702801101e-05,4.876401726505719e-05,-8.162784797605127e-05,-0.038919590413570404,-0.0037591862492263317,-9.820043563842773,0,0,25.1514892578125,1,1,760,799,1768451511.3602371,0.659736
IMU,2404871,0,1.8393936898064567e-06,-1.5408539184136316e-05,2.3023814719635993e-05,-0.04246512055397034,-0.001631623599678278,-9.818910598754883,0,0,25.1514892578125,1,1,999,999,1768451511.3602371,0.659736
IMU,2424863,0,1.1800695574493147e-05,1.3634384231409058e-05,3.1551015126751736e-05,0.04242387413978577,0.00013815041165798903,-9.817926406860352,0,0,25.152812957763672,1,1,999,999,1768451511.3802292,0.679728
IMU,2424863,1,0.00017040105012711138,3.725460192072205e-05,-0.00012632521975319833,0.04466547444462776,0.0011175703257322311,-9.819389343261719,0,0,25.152812957763672,1,1,760,799,1768451511.3802292,0.679728
IMU,2444855,1,6.312839832389727e-05,-7.547217683168128e-05,-0.0001287198974750936,0.10995690524578094,-0.0023588789626955986,-9.817237854003906,0,0,25.154136657714844,1,1,760,799,1768451511.400221,0.69972
IMU,2444855,0,4.611285839928314e-05,1.308902574237436e-05,6.486327765742317e-05,0.10720938444137573,-0.0007811318500898778,-9.818255424499512,0,0,25.154136657714844,1,1,999,999,1768451511.400221,0.69972
IMU,2464847,1,-7.438154716510326e-05,-0.0001360830501653254,0.00012585532385855913,0.15698206424713135,-0.0019339494174346328,-9.816269874572754,0,0,25.155460357666016,1,1,760,799,1768451511.4202132,0.719712
IMU,2464847,0,-5.3259413107298315e-05,3.866701081278734e-05,4.560520756058395e-05,0.15622633695602417,-0.0005254807183519006,-9.819091796875,0,0,25.155460357666016,1,1,999,999,1768451511.4202132,0.719712
IMU,2484839,1,-6.375644443323836e-05,-0.00020001587108708918,-2.7501095246407203e-05,0.18825304508209229,-0.0028004725463688374,-9.816862106323242,0,0,25.156782150268555,1,1,760,799,1768451511.440205,0.739704
IMU,2484839,0,2.8342923542368226e-05,5.006989886169322e-05,2.0739120373036712e-05,0.18752020597457886,-0.0015023378655314445,-9.817644119262695,0,0,25.156782150268555,1,1,999,999,1768451511.440205,0.739704
IMU,2504831,1,0.00013886639499105513,2.677293923625257e-05,0.000127540944959037,0.20411625504493713,-0.0011128324549645185,-9.821319580078125,0,0,25.158103942871094,1,1,760,799,1768451511.4601972,0.759696
IMU,2504831,0,-2.3289303499041125e-05,4.0820468711899593e-05,3.8101545214885846e-05,0.2031022608280182,-0.0006840655696578324,-9.817873001098633,0,0,25.158103942871094,1,1,999,999,1768451511.4601972,0.759696
IMU,2524823,1,0.0002117371914209798,6.897163257235661e-05,3.494727206998505e-05,0.20810475945472717,-0.003766000736504793,-9.820265769958496,0,0,25.159427642822266,1,1,760,799,1768451511.480189,0.779688
IMU,2524823,0,1.8000857380684465e-05,3.519460005918518e-05,1.231292753800517e-05,0.21024027466773987,-0.0017590455245226622,-9.819029808044434,0,0,25.159427642822266,1,1,999,999,1768451511.480189,0.779688
IMU,2544815,1,-1.1055723916797433e-05,0.00010107268462888896,0.00014630562509410083,0.20769253373146057,-0.0006895493716001511,-9.819222450256348,0,0,25.160749435424805,1,1,760,799,1768451511.5001812,0.79968
IMU,2544815,0,1.0032188583863899e-05,3.8304460758809e-05,-7.936620932014193e-06,0.2062995731830597,-0.0009527909569442272,-9.81831169128418,0,0,25.160749435424805,1,1,999,999,1768451511.5001812,0.79968
IMU,2564807,0,3.6482531868387014e-05,5.732753379561473e-06,-2.248888267786242e-05,0.19500212371349335,-1.4888721125316806e-05,-9.818893432617188,0,0,25.162073135375977,1,1,999,999,1768451511.520173,0.819672
IMU,2564807,1,1.0563184105194523e-06,3.9513401134172454e-05,0.00024727644631639123,0.19665968418121338,-0.0014168878551572561,-9.820067405700684,0,0,25.162073135375977,1,1,760,799,1768451511.520173,0.819672
IMU,2584799,0,3.179792884111521e-06,2.5288965844083577e-05,5.19628738402389e-05,0.1774507462978363,-0.0006830148631706834,-9.819265365600586,0,0,25.163394927978516,1,1,999,999,1768451511.5401652,0.839664
IMU,2584799,1,0.00015908591740299016,-0.00030318513745442033,-7.322707097046077e-05,0.17651741206645966,-0.0007543920073658228,-9.819072723388672,0,0,25.163394927978516,1,1,760,799,1768451511.5401652,0.839664
IMU,2604791,0,4.904932575300336e-05,0.00013546075206249952,3.765060682781041e-05,0.15555505454540253,-0.001058379653841257,-9.817947387695312,0,0,25.164716720581055,1,1,999,999,1768451511.560157,0.859656
IMU,2604791,1,9.533471893519163e-05,0.00016327806224580854,3.7261565012158826e-05,0.15391987562179565,-0.0003953605191782117,-9.81692123413086,0,0,25.164716720581055,1,1,760,799,1768451511.560157,0.859656
IMU,2624783,0,3.4786182368407026e-05,1.866834645625204e-05,3.866984843625687e-05,0.131802499294281,-0.0007571267196908593,-9.817123413085938,0,0,25.166040420532227,1,1,999,999,1768451511.5801492,0.879648
IMU,2624783,1,-0.00021119898883625865,-0.00021847992320545018,7.750489203317557e-06,0.13056810200214386,0.0010899429908022285,-9.815478324890137,0,0,25.166040420532227,1,1,760,799,1768451511.5801492,0.879648
IMU,2644775,1,-5.628620783681981e-05,-6.397611286956817e-05,-3.7998597690602764e-05,0.10677532851696014,-0.001493796706199646,-9.819025039672852,0,0,25.167362213134766,1,1,760,799,1768451511.600141,0.89964
IMU,2644775,0,-5.043566034146352e-06,6.960837708902545e-06,0.00010553761967457831,0.10804928839206696,-0.000562086992431432,-9.817485809326172,0,0,25.167362213134766,1,1,999,999,1768451511.600141,0.89964
IMU,2664767,0,1.6337626220774837e-05,5.829286965308711e-05,2.752460386545863e-05,0.0814560204744339,-0.0007279969286173582,-9.817652702331543,0,0,25.168684005737305,1,1,999,999,1768451511.6201332,0.919632
IMU,2664767,1,-3.21344705298543e-05,-0.00018428584735374898,6.14427262917161e-05,0.07957234978675842,-0.001397587126120925,-9.816401481628418,0,0,25.168684005737305,1,1,760,799,1768451511.6201332,0.919632
IMU,2684759,0,5.353239976102486e-05,3.967853626818396e-05,4.422273923410103e-05,0.05786865949630737,-0.0020997822284698486,-9.818009376525879,0,0,25.170005798339844,1,1,999,999,1768451511.640125,0.939624
IMU,2684759,1,-4.755042027682066e-05,-0.00019109860295429826,-0.00014976183592807502,0.05865023285150528,-0.0020690085366368294,-9.816367149353027,0,0,25.170005798339844,1,1,760,799,1768451511.640125,0.939624
IMU,2704751,1,1.351127025372989e-06,-5.020074240746908e-05,-1.0144995030714199e-05,0.036428093910217285,-0.0036906730383634567,-9.815535545349121,0,0,25.171329498291016,1,1,760,799,1768451511.6601171,0.959616
IMU,2704751,0,-0.00010510497668292373,3.484222179395147e-05,-2.4814085918478668e-05,0.037032365798950195,-0.0004359576851129532,-9.816656112670898,0,0,25.171329498291016,1,1,999,999,1768451511.6601171,0.959616
IMU,2724743,1,-9.375692752655596e-05,0.00026650624931789935,-0.00014613807434216142,0.017699815332889557,-0.0032819919288158417,-9.818931579589844,0,0,25.172651290893555,1,1,760,799,1768451511.680109,0.979608
IMU,2724743,0,0.00010005233343690634,4.647324021789245e-05,3.124916474916972e-05,0.017771121114492416,-0.001558997086249292,-9.816614151000977,0,0,25.172651290893555,1,1,999,999,1768451511.680109,0.979608
IMU,2744735,1,6.911247510288376e-06,0.0003002947778441012,-0.00016435795987490565,-3.848367487080395e-05,4.687166801886633e-05,-9.817439079284668,0,0,25.173973083496094,1,1,760,799,1768451511.7001011,0.9996
IMU,2744735,0,6.472511449828744e-05,6.0517151723615825e-05,0.00010448052489664406,-2.9616494430229068e-05,-0.0014676912687718868,-9.817279815673828,0,0,25.173973083496094,1,1,999,999,1768451511.7001011,0.9996
IMU,2764727,0,8.671999967191368e-05,2.6682097086450085e-05,-8.961400453699753e-06,-0.01485703606158495,-0.0017233872786164284,-9.816690444946289,0,0,25.17529296875,1,1,999,999,1768451511.7200933,1.019592
IMU,2764727,1,1.9916435121558607e-05,0.00010590188321657479,3.907451900886372e-05,-0.013425599783658981,0.00010799572919495404,-9.815916061401367,0,0,25.17529296875,1,1,760,799,1768451511.7200933,1.019592
IMU,2784719,1,-4.506665936787613e-05,0.00012291486200410873,-0.00031528540421277285,-0.025405531749129295,-0.0035738633014261723,-9.817176818847656,0,0,25.176616668701172,1,1,760,799,1768451511.7400851,1.039584
IMU,2784719,0,6.687940185656771e-05,7.771183300064877e-05,4.14262103731744e-05,-0.024724869057536125,-0.0005744083318859339,-9.816579818725586,0,0,25.176616668701172,1,1,999,999,1768451511.7400851,1.039584
IMU,2804711,0,7.30828833184205e-06,4.084965621586889e-05,5.926481026108377e-05,-0.034665729850530624,-1.738821629260201e-05,-9.817028045654297,0,0,25.177936553955078,1,1,999,999,1768451511.7600772,1.059576
IMU,2804711,1,0.00029013861785642803,0.00018101106979884207,-9.720412344904616e-05,-0.03177974373102188,-0.002512698993086815,-9.81777572631836,0,0,25.177936553955078,1,1,760,799,1768451511.7600772,1.059576
IMU,2824703,0,-8.81986488820985e-06,9.884123574011028e-05,3.7131070712348446e-05,-0.03950469568371773,-0.00043246836867183447,-9.816261291503906,0,0,25.179258346557617,1,1,999,999,1768451511.780069,1.079568
IMU,2824703,1,-5.3890678827883676e-05,0.00030932179652154446,0.00015341551625169814,-0.03985028341412544,-0.003307063365355134,-9.817803382873535,0,0,25.179258346557617,1,1,760,799,1768451511.780069,1.079568
IMU,2844695,0,4.3212603486608714e-05,0.00014790604473091662,0.00013763582683168352,-0.043816547840833664,-0.0006444447790272534,-9.816934585571289,0,0,25.180580139160156,1,1,999,999,1768451511.8000612,1.09956
IMU,2844695,1,0.0002651538816280663,0.0001429184339940548,0.00018138396262656897,-0.04240710288286209,0.0014654563274234533,-9.815851211547852,0,0,25.180580139160156,1,1,760,799,1768451511.8000612,1.09956
IMU,2864687,0,6.80125376675278e-05,4.781660754815675e-05,8.062564302235842e-05,-0.044552333652973175,-0.0011823090026155114,-9.817153930664062,0,0,25.181901931762695,1,1,999,999,1768451511.820053,1.119552
IMU,2864687,1,0.00019656882795970887,-0.00011804587848018855,0.00019105614046566188,-0.04642009362578392,-0.0008384489337913692,-9.8186616897583,0,0,25.181901931762695,1,1,760,799,1768451511.820053,1.119552
IMU,2884679,1,0.00010261630814056844,3.311735054012388e-05,0.00027314788894727826,-0.04330109804868698,-0.0006513036787509918,-9.81785774230957,0,0,25.1832218170166,1,1,760,799,1768451511.8400452,1.139544
IMU,2884679,0,5.481560583575629e-05,2.9543120035668835e-05,9.660192517912947e-06,-0.044214848428964615,-0.00029233709210529923,-9.81696891784668,0,0,25.1832218170166,1,1,999,999,1768451511.8400452,1.139544
IMU,2904671,1,0.0001963127142516896,0.00011140805145259947,0.000352041213773191,-0.04341734200716019,-0.002063311170786619,-9.81781005859375,0,0,25.18454360961914,1,1,760,799,1768451511.860037,1.159536
IMU,2904671,0,2.435898204566911e-05,6.482756816694746e-06,3.868178464472294e-05,-0.042687561362981796,-0.0014411768643185496,-9.816831588745117,0,0,25.18454360961914,1,1,999,999,1768451511.860037,1.159536
IMU,2924663,1,7.736412226222456e-05,8.516994421370327e-05,0.00019025866640731692,-0.039981551468372345,-0.0003077267319895327,-9.816971778869629,0,0,25.185863494873047,1,1,760,799,1768451511.8800292,1.179528
IMU,2924663,0,5.513688302016817e-05,-2.2026602891855873e-05,2.1087846107548103e-05,-0.03962830454111099,-0.0018484765896573663,-9.816530227661133,0,0,25.185863494873047,1,1,999,999,1768451511.8800292,1.179528
IMU,2944655,0,7.00681412126869e-05,2.1038755221525207e-05,7.293846283573657e-05,-0.03634543716907501,-0.00045416707871481776,-9.815925598144531,0,0,25.187185287475586,1,1,999,999,1768451511.900021,1.19952
IMU,2944655,1,-0.0003397994441911578,2.269887409056537e-05,0.00014498064410872757,-0.036290038377046585,-0.0009320911485701799,-9.817660331726074,0,0,25.187185287475586,1,1,760,799,1768451511.900021,1.19952
IMU,2964647,1,-6.626029789913446e-05,-8.087436435744166e-05,0.00034195734770037234,-0.03236367553472519,0.000220484085730277,-9.816767692565918,0,0,25.188505172729492,1,1,760,799,1768451511.9200132,1.219512
IMU,2964647,0,0.0001026482495944947,0.0001356848079012707,1.035275181493489e-05,-0.03161327540874481,-0.0019783833995461464,-9.818034172058105,0,0,25.188505172729492,1,1,999,999,1768451511.9200132,1.219512
IMU,2984639,1,-3.2586685847491026e-05,0.00022109186102170497,-9.746410069055855e-05,-0.027101783081889153,-0.0025918823666870594,-9.818815231323242,0,0,25.18982696533203,1,1,760,799,1768451511.940005,1.239504
IMU,2984639,0,7.747964264126495e-05,0.00013146831770427525,4.214426735416055e-05,-0.02816164493560791,-0.0025195321068167686,-9.817975044250488,0,0,25.18982696533203,1,1,999,999,1768451511.940005,1.239504
IMU,3004631,1,2.162651071557775e-05,-4.3946944060735404e-05,0.00022445936338044703,-0.022146768867969513,-0.002135631861165166,-9.816625595092773,0,0,25.191146850585938,1,1,760,799,1768451511.9599972,1.259496
IMU,3004631,0,5.4817959608044475e-05,8.585936302552e-05,-5.755748588853749e-07,-0.02217109315097332,9.320658136857674e-06,-9.816670417785645,0,0,25.191146850585938,1,1,999,999,1768451511.9599972,1.259496
IMU,3024623,0,4.954973337589763e-05,7.341019227169454e-05,9.990440048568416e-06,-0.01806478016078472,-0.00033203064231202006,-9.817858695983887,0,0,25.192468643188477,1,1,999,999,1768451511.979989,1.279488
IMU,3024623,1,-0.00013596992357634008,-2.5541663490002975e-05,0.0002774014719761908,-0.0189635269343853,-0.0023427079431712627,-9.820457458496094,0,0,25.192468643188477,1,1,760,799,1768451511.979989,1.279488
IMU,3044615,0,7.211785850813612e-05,5.262449485599063e-05,4.726892075268552e-05,-0.014399023726582527,0.00029415913741104305,-9.817546844482422,0,0,25.193788528442383,1,1,999,999,1768451511.9999812,1.29948
IMU,3044615,1,-5.408813194662798e-06,3.677142012747936e-05,0.0003151860146317631,-0.013450564816594124,0.0001936605985974893,-9.81800651550293,0,0,25.193788528442383,1,1,760,799,1768451511.9999812,1.29948
IMU,3064607,0,3.202456719009206e-05,4.8812733439262956e-05,2.9262566386023536e-05,-0.009733341634273529,-0.00048069344484247267,-9.817581176757812,0,0,25.19510841369629,1,1,999,999,1768451512.019973,1.319472
IMU,3064607,1,-0.00014445923443417996,9.400502312928438e-05,0.0003046397469006479,-0.009522098116576672,-0.0010646890150383115,-9.81766414642334,0,0,25.19510841369629,1,1,760,799,1768451512.019973,1.319472
IMU,3084599,0,3.7724275898654014e-05,4.4428379624150693e-05,-1.5537447325186804e-05,-0.006016015540808439,-0.0002517172833904624,-9.818230628967285,0,0,25.196430206298828,1,1,999,999,1768451512.0399652,1.339464
IMU,3084599,1,0.00013582123210653663,0.00025940409977920353,3.3810028980951756e-05,-0.006632797420024872,0.0015804881695657969,-9.817863464355469,0,0,25.196430206298828,1,1,760,799,1768451512.0399652,1.339464
IMU,3104591,0,2.9013728635618463e-05,0.00010297644621459767,3.1851883250055835e-05,-0.0026611480861902237,-0.001337643712759018,-9.817107200622559,0,0,25.197750091552734,1,1,999,999,1768451512.059957,1.359456
IMU,3104591,1,0.00025637654471211135,8.153221278917044e-05,4.2984585888916627e-05,-0.002127596875652671,-0.001149403746239841,-9.817852973937988,0,0,25.197750091552734,1,1,760,799,1768451512.059957,1.359456
IMU,3124583,1,-0.00016962461813818663,3.706084316945635e-05,-3.901164745911956e-05,-0.002148713916540146,0.0012028010096400976,-9.816791534423828,0,0,25.199068069458008,1,1,760,799,1768451512.0799491,1.379448
IMU,3124583,0,0.00012100445746909827,0.00011425801494624466,6.0099890106357634e-05,-0.00033070589415729046,0.0002936393429990858,-9.818114280700684,0,0,25.199068069458008,1,1,999,999,1768451512.0799491,1.379448
IMU,3144575,1,-0.00016325930482707918,-0.00011574453674256802,-8.443382102996111e-05,-0.00023239993606694043,-0.0015052796807140112,-9.816642761230469,0,0,25.200389862060547,1,1,760,799,1768451512.0999413,1.39944
IMU,3144575,0,7.0938331191428006e-06,8.947131573222578e-05,6.45722730041598e-06,0.0018587089143693447,-0.0010457388125360012,-9.816961288452148,0,0,25.200389862060547,1,1,1000,1000,1768451512.0999413,1.39944
IMU,3164567,1,-0.0001253703812835738,8.882215479388833e-05,0.00021263457892928272,0.0034492542035877705,5.288209649734199e-06,-9.818711280822754,0,0,25.201709747314453,1,1,760,799,1768451512.1199331,1.419432
IMU,3164567,0,3.075990389334038e-05,5.244232670520432e-05,1.8248836568091065e-05,0.0034871171228587627,-0.0007972641615197062,-9.818273544311523,0,0,25.201709747314453,1,1,1000,1000,1768451512.1199331,1.419432
IMU,3184559,0,1.7761656636139378e-05,2.814609615597874e-05,0.00011700738104991615,0.00474087567999959,-0.0007401013281196356,-9.817310333251953,0,0,25.20302963256836,1,1,1000,1000,1768451512.1399252,1.439424
IMU,3184559,1,1.973364760488039e-08,-0.00016424806381110102,2.6731240723165683e-05,0.004990899004042149,-0.00227920338511467,-9.817733764648438,0,0,25.20302963256836,1,1,760,799,1768451512.1399252,1.439424
IMU,3204551,0,1.552607272969908e-06,7.579200610052794e-05,0.00010310268407920375,0.004501304589211941,-0.0004619543324224651,-9.81660270690918,0,0,25.204349517822266,1,1,1000,1000,1768451512.159917,1.459416
IMU,3204551,1,6.761800614185631e-05,-4.270811768947169e-05,-0.00012770995090249926,0.004608979448676109,-0.003724815556779504,-9.81595516204834,0,0,25.204349517822266,1,1,760,799,1768451512.159917,1.459416
IMU,3224543,0,7.84594303695485e-05,3.6775840271729976e-05,5.4004485718905926e-05,0.004872804507613182,-0.000558776780962944,-9.817057609558105,0,0,25.20566749572754,1,1,1000,1000,1768451512.1799092,1.479408
IMU,3224543,1,-6.651786679867655e-05,-3.8764872442698106e-05,0.00013285221939440817,0.0025280506815761328,0.00021661570644937456,-9.817567825317383,0,0,25.20566749572754,1,1,760,799,1768451512.1799092,1.479408
IMU,3244535,0,0.00010933860903605819,1.962519672815688e-05,0.00010724316234700382,0.004595677834004164,-0.00028201050008647144,-9.817684173583984,0,0,25.206987380981445,1,1,1000,1000,1768451512.199901,1.4994
IMU,3244535,1,-8.574003732064739e-05,0.0003000957949552685,-1.0978011232509743e-05,0.005167864728718996,-0.0007389058591797948,-9.817951202392578,0,0,25.206987380981445,1,1,760,799,1768451512.199901,1.4994
IMU,3264527,0,0.00013690385094378144,5.491917363542598e-06,8.862918912200257e-05,0.0043708886951208115,-0.0005760291824117303,-9.816570281982422,0,0,25.20830726623535,1,1,1000,1000,1768451512.2198932,1.519392
IMU,3264527,1,9.496603161096573e-05,0.00026041618548333645,-1.5506800991715863e-05,0.005287136882543564,-0.00045002586557529867,-9.817426681518555,0,0,25.208242416381836,1,1,760,799,1768451512.2198932,1.519392
IMU,3284519,1,2.1626909074257128e-05,0.00023591147328261286,0.0002071171038551256,0.007064055651426315,-0.00010754778486443684,-9.816255569458008,0,0,25.209562301635742,1,1,760,799,1768451512.239885,1.539384
IMU,3284519,0,8.957995305536315e-05,0.0001725929614622146,-3.3670541597530246e-05,0.004095118027180433,-0.0004473572480492294,-9.817869186401367,0,0,25.209627151489258,1,1,1000,1000,1768451512.239885,1.539384
IMU,3304511,1,0.00010333868704037741,4.233954314258881e-05,7.511270814575255e-05,0.006734251510351896,-0.002738887444138527,-9.81747055053711,0,0,25.210880279541016,1,1,760,799,1768451512.2598772,1.559376
IMU,3304511,0,7.969033322297037e-05,-5.12702854393865e-06,5.2167451940476894e-05,0.004250542260706425,-0.001384127652272582,-9.817584991455078,0,0,25.210947036743164,1,1,1000,1000,1768451512.2598772,1.559376
IMU,3324503,1,-7.654898217879236e-05,9.06285858945921e-05,0.00012081842578481883,0.007371337153017521,-0.002903328277170658,-9.816609382629395,0,0,25.212200164794922,1,1,760,799,1768451512.279869,1.579368
IMU,3324503,0,9.473868703935295e-05,1.4717227259097854e-06,1.8014878151006997e-05,0.0035754372365772724,-0.00025666720466688275,-9.817994117736816,0,0,25.212265014648438,1,1,1000,1000,1768451512.279869,1.579368
IMU,3344495,0,6.316233339020982e-05,6.854577804915607e-05,7.678593101445585e-05,0.002911260351538658,-7.967109922901727e-06,-9.817781448364258,0,0,25.213584899902344,1,1,1000,1000,1768451512.2998612,1.59936
IMU,3344495,1,-0.00010127335553988814,1.9149524632666726e-06,0.0001788169174687937,0.0020908252336084843,3.775562800001353e-05,-9.817039489746094,0,0,25.213520050048828,1,1,760,799,1768451512.2998612,1.59936
IMU,3364487,1,8.596264524385333e-05,2.161782504117582e-05,5.191076979826903e-06,-0.001894180430099368,-0.0008026048308238387,-9.819427490234375,0,0,25.2148380279541,1,1,760,799,1768451512.319853,1.619352
IMU,3364487,0,4.5919739932287484e-05,7.642438868060708e-05,-5.2127521485090256e-05,0.003057262860238552,-0.0007454398437403142,-9.817673683166504,0,0,25.214902877807617,1,1,1000,1000,1768451512.319853,1.619352
IMU,3384479,1,0.00031527417013421655,0.00014194127288646996,6.241604751267005e-06,0.0040521565824747086,0.0011724778451025486,-9.818464279174805,0,0,25.216156005859375,1,1,760,799,1768451512.3398452,1.639344
IMU,3384479,0,7.83969517215155e-05,5.3512718295678496e-05,3.0312805392895825e-05,0.0002615331904962659,-0.001498483819887042,-9.818004608154297,0,0,25.216222763061523,1,1,1000,1000,1768451512.3398452,1.639344
IMU,3404471,1,3.2654534152243286e-05,-2.846613597284886e-06,-7.63638672651723e-05,0.001330542960204184,-0.001106131705455482,-9.819414138793945,0,0,25.21747589111328,1,1,760,799,1768451512.359837,1.659336
IMU,3404471,0,0.000152365246322006,6.205217505339533e-05,8.217139111366123e-06,0.0005351512809284031,-0.001880016177892685,-9.81696891784668,0,0,25.217540740966797,1,1,1000,1000,1768451512.359837,1.659336
IMU,3424463,0,0.0001233543298440054,0.00011959992843912914,7.005176303209737e-05,0.0009193739388138056,-0.000814375001937151,-9.815983772277832,0,0,25.218860626220703,1,1,1000,1000,1768451512.3798292,1.679328
IMU,3424463,1,0.00024965318152680993,7.64508149586618e-05,0.0001111900492105633,0.00041469960706308484,0.00048273836728185415,-9.818819999694824,0,0,25.218793869018555,1,1,760,799,1768451512.3798292,1.679328
IMU,3444455,1,-7.148530858103186e-05,-1.0598621884128079e-05,3.30004004354123e-05,0.0014033264014869928,-0.002408374333754182,-9.818979263305664,0,0,25.220111846923828,1,1,760,799,1768451512.399821,1.69932
IMU,3444455,0,1.5216597603284754e-05,5.276552838040516e-05,9.285315172746778e-05,-0.00020121259149163961,-0.00032687210477888584,-9.816905975341797,0,0,25.22018051147461,1,1,1000,1000,1768451512.399821,1.69932
IMU,3464447,1,-2.3972776034497656e-05,-3.180593694196432e-06,8.535462256986648e-05,0.0006273980834521353,0.0004378448938950896,-9.816901206970215,0,0,25.221431732177734,1,1,760,799,1768451512.4198132,1.719312
IMU,3464447,0,4.263887240085751e-05,-1.815574250940699e-05,0.00010680379637051374,-0.000517307489644736,-0.0013110070722177625,-9.817121505737305,0,0,25.221498489379883,1,1,1000,1000,1768451512.4198132,1.719312
IMU,3484439,1,-0.00016509323904756457,0.00021527550416067243,-8.697836165083572e-05,-0.0014615149702876806,-0.0002729901752900332,-9.818498611450195,0,0,25.222749710083008,1,1,760,799,1768451512.439805,1.739304
IMU,3484439,0,4.261433787178248e-05,2.473912900313735e-06,6.156524614198133e-05,-0.000999577809125185,-0.0002526090538594872,-9.817414283752441,0,0,25.222816467285156,1,1,1000,1000,1768451512.439805,1.739304
IMU,3504431,1,-7.476397877326235e-05,0.0002565676986705512,0.00020948619931004941,-0.0015501657035201788,-0.0016677406383678317,-9.817299842834473,0,0,25.22406768798828,1,1,760,799,1768451512.4597971,1.759296
IMU,3504431,0,0.00012055810657329857,4.7180172259686515e-05,5.0293314416194335e-05,-0.0008951732888817787,-0.0019260267727077007,-9.817021369934082,0,0,25.22413444519043,1,1,1000,1000,1768451512.4597971,1.759296
IMU,3524423,1,2.1049361748737283e-05,0.00014279253082349896,0.0001688451593508944,0.000494730775244534,-0.0029829656705260277,-9.817298889160156,0,0,25.225387573242188,1,1,760,799,1768451512.479789,1.779288
IMU,3524423,0,4.5266380766406655e-05,8.487040759064257e-05,4.731968874693848e-05,-0.0014831020962446928,-0.0015265642432495952,-9.818292617797852,0,0,25.225452423095703,1,1,1000,1000,1768451512.479789,1.779288
IMU,3544415,1,6.246088742045686e-05,0.00012139127647969872,-9.976715227821842e-05,0.0005704392096959054,-0.002159447642043233,-9.815921783447266,0,0,25.22670555114746,1,1,760,799,1768451512.4997811,1.79928
IMU,3544415,0,-1.4836307855148334e-05,7.232543430291116e-05,1.520160094514722e-05,-0.0012747475411742926,-0.0016192703042179346,-9.8180570602417,0,0,25.22677230834961,1,1,1000,1000,1768451512.4997811,1.79928
IMU,3564407,1,-0.0001136957507696934,9.416900138603523e-05,0.00011186378833372146,-0.001988587435334921,-0.0014557420508936048,-9.818065643310547,0,0,25.228023529052734,1,1,760,799,1768451512.5197732,1.819272
IMU,3564407,0,7.219702092697844e-05,7.269749767147005e-05,3.3616626751609147e-05,-0.0019426807994022965,-0.001325934543274343,-9.81777286529541,0,0,25.22808837890625,1,1,1000,1000,1768451512.5197732,1.819272
IMU,3584399,1,-2.9533548513427377e-05,-1.5870977222220972e-05,6.590421435248572e-07,-0.0020960895344614983,0.0018865854945033789,-9.817846298217773,0,0,25.229341506958008,1,1,760,799,1768451512.5397651,1.839264
IMU,3584399,0,5.423151014838368e-05,6.967006629565731e-05,3.784649015869945e-05,-0.0023202458396553993,-0.0024806151632219553,-9.817663192749023,0,0,25.229408264160156,1,1,1000,1000,1768451512.5397651,1.839264
IMU,3604391,1,-0.00010576100612524897,-0.00013549887808039784,0.00014079258835408837,-6.75387418596074e-05,-0.0005931972991675138,-9.818679809570312,0,0,25.23065948486328,1,1,760,799,1768451512.5597572,1.859256
IMU,3604391,0,8.232669642893597e-05,4.332193930167705e-05,1.3644212231156416e-05,-0.002569311298429966,-0.0012931503588333726,-9.818061828613281,0,0,25.23072624206543,1,1,1000,1000,1768451512.5597572,1.859256
IMU,3624383,1,5.046519436291419e-05,3.7703874113503844e-05,0.00038092886097729206,-0.00034882736508734524,-0.0006752291810698807,-9.816519737243652,0,0,25.231977462768555,1,1,760,799,1768451512.579749,1.879248
IMU,3624383,0,7.629323226865381e-05,2.6708516088547185e-05,7.524998363805935e-05,-0.0021318248473107815,-0.0016028815880417824,-9.817298889160156,0,0,25.232044219970703,1,1,1000,1000,1768451512.579749,1.879248
IMU,3644375,1,7.12059554643929e-05,-6.73052272759378e-05,-0.00018906552577391267,-0.0022571920417249203,-3.7886566133238375e-05,-9.820051193237305,0,0,25.233295440673828,1,1,760,799,1768451512.5997412,1.89924
IMU,3644375,0,-1.6494871033501113e-06,2.6445248295203783e-05,4.156080831307918e-05,-0.001582169672474265,-0.0008617259445600212,-9.817448616027832,0,0,25.233362197875977,1,1,1000,1000,1768451512.5997412,1.89924
IMU,3664367,1,-4.9550171752343886e-06,0.0002849915181286633,7.552478928118944e-05,-0.002989699598401785,-0.0009339719545096159,-9.817665100097656,0,0,25.2346134185791,1,1,760,799,1768451512.619733,1.919232
IMU,3664367,0,2.909267641371116e-05,2.134529313480016e-05,9.443569433642551e-05,-0.0018770076567307115,-0.0016291175270453095,-9.81699275970459,0,0,25.234678268432617,1,1,1000,1000,1768451512.619733,1.919232
IMU,3684359,1,2.4771168682491407e-05,8.59201536513865e-05,-2.87753869088192e-06,-0.0007814910495653749,0.0005673770792782307,-9.813742637634277,0,0,25.235931396484375,1,1,760,799,1768451512.6397252,1.939224
IMU,3684359,0,0.00011763686052290723,5.901707936573075e-06,3.14877433993388e-05,-0.0013805837370455265,-0.0006332102930173278,-9.816898345947266,0,0,25.23599624633789,1,1,1000,1000,1768451512.6397252,1.939224
IMU,3704351,1,-0.00013438209134619683,2.382888487773016e-05,-2.39271939790342e-05,-0.00032913623726926744,-0.002573661971837282,-9.816019058227539,0,0,25.237247467041016,1,1,760,799,1768451512.659717,1.959216
IMU,3704351,0,3.0512450393871404e-05,2.3996086383704096e-05,6.0351558204274625e-05,-0.0016502232756465673,-0.0016389188822358847,-9.81786060333252,0,0,25.237314224243164,1,1,1000,1000,1768451512.659717,1.959216
IMU,3724343,1,0.00020729401148855686,-0.0002032729098573327,-0.00015092125977389514,-0.004120313562452793,-0.0015660945791751146,-9.81692123413086,0,0,25.23856544494629,1,1,760,799,1768451512.6797092,1.979208
IMU,3724343,0,7.865521183703095e-05,3.4385218896204606e-05,-1.1659590199997183e-06,-0.0022023969795554876,-0.0009904262842610478,-9.81692886352539,0,0,25.238632202148438,1,1,1000,1000,1768451512.6797092,1.979208
IMU,3744335,1,0.00020764698274433613,-3.5982269764645025e-05,-6.262216629693285e-05,-0.003180817933753133,-0.0019062733044847846,-9.81584358215332,0,0,25.239883422851562,1,1,760,799,1768451512.699701,1.9992
IMU,3744335,0,5.6939956266433e-05,1.398342374159256e-05,2.5053182980627753e-05,-0.0018516258569434285,-0.00045566927292384207,-9.816831588745117,0,0,25.239948272705078,1,1,1000,1000,1768451512.699701,1.9992
IMU,3764327,1,0.00015784456627443433,0.00013411033432930708,-5.6033873988781124e-05,-0.0015260945074260235,-8.573902596253902e-05,-9.817052841186523,0,0,25.241201400756836,1,1,760,799,1768451512.7196932,2.019192
IMU,3764327,0,7.054205343592912e-05,5.445893475553021e-05,8.153982344083488e-05,-0.0010777548886835575,-0.000919292913749814,-9.81684398651123,0,0,25.24126625061035,1,1,1000,1000,1768451512.7196932,2.019192
IMU,3784319,1,1.607483318366576e-05,0.000153787768795155,3.7989691918483004e-05,-0.0018997038714587688,-0.0009323452832177281,-9.815045356750488,0,0,25.242517471313477,1,1,760,799,1768451512.739685,2.039184
IMU,3784319,0,7.785684283589944e-05,-3.2843349799804855e-06,-2.773461164906621e-05,-0.0008419074583798647,-0.0005023695412091911,-9.818002700805664,0,0,25.242584228515625,1,1,1000,1000,1768451512.739685,2.039184
IMU,3804311,1,-1.494693151471438e-07,-2.7318892534822226e-05,0.00024576939176768064,-0.001020672614686191,-0.0015579909086227417,-9.816763877868652,0,0,25.243833541870117,1,1,760,799,1768451512.7596772,2.059176
IMU,3804311,0,5.399010478868149e-05,5.145218892721459e-05,-4.172464832663536e-05,-0.0009496203856542706,-0.0010058785555884242,-9.817328453063965,0,0,25.243900299072266,1,1,1000,1000,1768451512.7596772,2.059176
IMU,3825136,1,-0.0001165576686616987,0.00016494635201524943,0.0003213364107068628,-0.0010690459748730063,-0.0009848506888374686,-9.815787315368652,0,0,25.245283126831055,1,1,760,799,1768451512.780502,2.080001
IMU,3825136,0,6.721943645970896e-05,5.3869101975578815e-05,3.475165067357011e-05,-0.0010607043514028192,-0.00023015725309960544,-9.818328857421875,0,0,25.245216369628906,1,1,1000,1000,1768451512.780502,2.080001
IMU,3845128,1,0.0001822694030124694,0.00026163150323554873,0.00023463123943656683,-0.0023580272682011127,-0.0004146830178797245,-9.81733512878418,0,0,25.246599197387695,1,1,760,799,1768451512.8004942,2.099993
IMU,3845128,0,6.773696804884821e-05,3.151602504658513e-05,8.0771220382303e-05,-0.0008243924239650369,8.643871115054935e-05,-9.817361831665039,0,0,25.24653434753418,1,1,1000,1000,1768451512.8004942,2.099993
IMU,3865120,1,0.00037783669540658593,-2.7552088795346208e-05,0.00011278441525064409,-0.0012945408234372735,-0.001027049496769905,-9.81846809387207,0,0,25.24791717529297,1,1,760,799,1768451512.820486,2.119985
IMU,3865120,0,0.00010490947897778824,7.01699173077941e-05,8.226562931668013e-05,-0.0015174911823123693,-0.0024919677525758743,-9.817262649536133,0,0,25.247852325439453,1,1,1000,1000,1768451512.820486,2.119985
IMU,3885112,1,-4.235657979734242e-05,3.645644028438255e-05,0.0002597637940198183,-8.212251123040915e-05,-0.0011816390324383974,-9.816137313842773,0,0,25.249235153198242,1,1,760,799,1768451512.8404782,2.139977
IMU,3885112,0,0.00010611243487801403,1.819273893488571e-05,9.407028119312599e-05,-0.00022171511955093592,-0.0006667395937256515,-9.818119049072266,0,0,25.249235153198242,1,1,1000,1000,1768451512.8404782,2.139977
IMU,3905104,1,4.520081347436644e-05,0.0001798408484319225,-0.00014453500625677407,-0.0017463796539232135,-0.001117057166993618,-9.814855575561523,0,0,25.250551223754883,1,1,760,799,1768451512.86047,2.159969
IMU,3905104,0,6.268622382776812e-05,9.421317372471094e-05,1.4949562682886608e-05,-0.000739575014449656,6.745135033270344e-05,-9.816864013671875,0,0,25.250551223754883,1,1,1000,1000,1768451512.86047,2.159969
IMU,3925096,1,-0.00011812425509560853,0.00020417847554199398,-0.00019346497720107436,-0.0022041932679712772,-0.0004937598132528365,-9.815972328186035,0,0,25.251867294311523,1,1,760,799,1768451512.8804622,2.179961
IMU,3925096,0,3.107639713562094e-05,1.8559207092039287e-05,1.8883682059822604e-05,-0.0020822049118578434,-0.0014018878573551774,-9.817626953125,0,0,25.251867294311523,1,1,1000,1000,1768451512.8804622,2.179961
IMU,3945088,1,-1.7311824194621295e-05,0.00016195536591112614,8.249362144852057e-05,-0.003434764686971903,-0.0012342090485617518,-9.818492889404297,0,0,25.253183364868164,1,1,760,799,1768451512.900454,2.199953
IMU,3945088,0,3.512586044962518e-05,8.18418338894844e-05,1.1556218851183075e-05,-0.0006854796083644032,-0.002121934201568365,-9.817028045654297,0,0,25.253183364868164,1,1,1000,1000,1768451512.900454,2.199953
IMU,3965080,1,0.00020274573762435466,3.994360668002628e-05,-3.674313484225422e-05,-0.001420952845364809,0.0021081112790852785,-9.817424774169922,0,0,25.254499435424805,1,1,760,799,1768451512.9204462,2.219945
IMU,3965080,0,7.987382559804246e-06,0.0001111453166231513,5.343928205547854e-05,-0.0007378943264484406,-0.0013659915421158075,-9.816757202148438,0,0,25.254499435424805,1,1,1000,1000,1768451512.9204462,2.219945
IMU,3985072,1,4.5175755076343194e-05,9.110142127610743e-05,-3.999011096311733e-05,-0.0004665373417083174,-0.0034757854882627726,-9.816950798034668,0,0,25.255815505981445,1,1,760,799,1768451512.940438,2.239937
IMU,3985072,0,9.46634008869296e-06,0.00013290735660120845,0.00015189650002866983,-8.979220001492649e-05,0.0003679816145449877,-9.81727123260498,0,0,25.255815505981445,1,1,1000,1000,1768451512.940438,2.239937
IMU,4005064,1,-7.885954255471006e-05,0.00015190339763648808,0.00012222706573083997,0.0010422652121633291,-0.0032128440216183662,-9.817723274230957,0,0,25.25713348388672,1,1,760,799,1768451512.9604301,2.259929
IMU,4005064,0,7.358157017733902e-05,7.835160795366392e-05,0.00010890837438637391,-0.0009179451735690236,-0.0011714899446815252,-9.817198753356934,0,0,25.25713348388672,1,1,1000,1000,1768451512.9604301,2.259929
IMU,4025056,1,0.00011962043936364353,2.9558592359535396e-05,0.0001911113504320383,-0.0026392790023237467,-0.00014103877765592188,-9.818914413452148,0,0,25.25844955444336,1,1,760,799,1768451512.980422,2.279921
IMU,4025056,0,6.872967787785456e-05,4.322689346736297e-05,6.912992830621079e-05,-0.0009433415252715349,-0.0014583125011995435,-9.81785774230957,0,0,25.25844955444336,1,1,1000,1000,1768451512.980422,2.279921
IMU,4045048,1,-0.00011381175136193633,0.0001242724247276783,-8.777047696639784e-06,-0.0012199233751744032,-0.0009290243033319712,-9.818514823913574,0,0,25.259765625,1,1,760,799,1768451513.0004141,2.299913
IMU,4045048,0,8.873787737684324e-05,8.058708044700325e-05,9.630699787521735e-05,-0.00040451964014209807,-0.0007208872702904046,-9.817307472229004,0,0,25.259765625,1,1,1000,1000,1768451513.0004141,2.299913
IMU,4065040,1,0.00013607260189019144,0.00024299416691064835,0.000299586245091632,-0.0003202413208782673,-0.001965603791177273,-9.817142486572266,0,0,25.26108169555664,1,1,760,799,1768451513.0204062,2.319905
IMU,4065040,0,1.2674075151153374e-05,6.990553811192513e-05,9.990473336074501e-05,-0.001270935288630426,-0.0016766884364187717,-9.817032814025879,0,0,25.26108169555664,1,1,1000,1000,1768451513.0204062,2.319905
IMU,4085032,1,0.00011842633102787659,1.572512701386586e-05,0.00027284660609439015,-0.0003581251366995275,0.00013183904229663312,-9.816865921020508,0,0,25.26239585876465,1,1,760,799,1768451513.0403981,2.339897
IMU,4085032,0,2.1616453523165546e-05,7.346727943513542e-05,2.090193265757989e-05,-0.000877449638210237,-0.002394395414739847,-9.816944122314453,0,0,25.26239585876465,1,1,1000,1000,1768451513.0403981,2.339897
IMU,4105024,1,0.00020347294048406184,0.00018496427219361067,-0.00015890150098130107,0.0006103554042056203,-0.0034486728254705667,-9.817778587341309,0,0,25.26371192932129,1,1,760,799,1768451513.0603902,2.359889
IMU,4105024,0,5.702718044631183e-05,0.00012480159057304263,2.059226517303614e-06,-0.0006324285641312599,-0.0013562089297920465,-9.817098617553711,0,0,25.26371192932129,1,1,1000,1000,1768451513.0603902,2.359889
IMU,4125016,1,-0.0002321731299161911,0.00012441717262845486,-3.456305785221048e-05,-0.001762942411005497,-9.695428889244795e-05,-9.818524360656738,0,0,25.26502799987793,1,1,760,799,1768451513.080382,2.379881
IMU,4125016,0,4.414617797010578e-05,2.558249070716556e-05,8.159411663655192e-05,-0.0013333498500287533,-0.0020499881356954575,-9.817696571350098,0,0,25.26502799987793,1,1,1000,1000,1768451513.080382,2.379881
IMU,4145008,1,-6.002122245263308e-05,0.0001951489393832162,-4.2110696085728705e-05,-0.002161662792786956,0.00045896880328655243,-9.816610336303711,0,0,25.26634407043457,1,1,760,799,1768451513.1003742,2.399873
IMU,4145008,0,8.947447349783033e-05,9.345564467366785e-05,7.294487295439467e-05,-0.0003477994760032743,0.00010497317998670042,-9.816011428833008,0,0,25.26634407043457,1,1,999,999,1768451513.1003742,2.399873
IMU,4165000,1,3.3168118534376845e-05,1.161703585239593e-05,-1.6254971342277713e-05,-0.0033514625392854214,-0.0009268446010537446,-9.815793991088867,0,0,25.26766014099121,1,1,760,799,1768451513.120366,2.419865
IMU,4165000,0,6.756299262633547e-05,9.971056715585291e-05,-7.530668881372549e-06,-0.002312547294422984,-0.0007917330367490649,-9.817349433898926,0,0,25.26766014099121,1,1,999,999,1768451513.120366,2.419865
IMU,4184992,1,0.00025171181187033653,0.00014881846436765045,0.00018200378690380603,-0.0026314747519791126,0.0007636353257112205,-9.814342498779297,0,0,25.268909454345703,1,1,760,799,1768451513.1403582,2.439857
IMU,4184992,0,5.516503006219864e-05,0.00011007827561115846,1.1202999303350225e-05,-0.0013552292948588729,-0.0012581711634993553,-9.816889762878418,0,0,25.268909454345703,1,1,999,999,1768451513.1403582,2.439857
IMU,4204984,1,9.408371988683939e-05,5.0855269364546984e-06,8.71047013788484e-05,-0.0017465882701799273,-0.0022920104674994946,-9.816923141479492,0,0,25.270225524902344,1,1,760,799,1768451513.16035,2.459849
IMU,4204984,0,-1.4565801393473521e-05,6.232386658666655e-05,2.945822780020535e-05,-0.0008648446528241038,-0.0004405698273330927,-9.817764282226562,0,0,25.270225524902344,1,1,999,999,1768451513.16035,2.459849
IMU,4224976,1,0.00016865819634404033,-0.00013906984531786293,3.7569137930404395e-05,-0.001453457516618073,-0.0025849423836916685,-9.81490707397461,0,0,25.27153968811035,1,1,760,799,1768451513.1803422,2.479841
IMU,4224976,0,2.3310007236432284e-05,5.817714554723352e-05,0.00011139783600810915,-0.0012549296952784061,-0.00018372610793448985,-9.817914009094238,0,0,25.27153968811035,1,1,999,999,1768451513.1803422,2.479841
IMU,4244968,1,0.00021240375644993037,0.00018747677677311003,-8.928994066081941e-05,-0.0007873849244788289,-0.000464762793853879,-9.817243576049805,0,0,25.27285385131836,1,1,760,799,1768451513.200334,2.499833
IMU,4244968,0,5.62688619538676e-05,7.096477929735556e-05,8.634263940621167e-05,-0.001925805350765586,-0.0020790440030395985,-9.816909790039062,0,0,25.27285385131836,1,1,999,999,1768451513.200334,2.499833
IMU,4264960,1,-3.457550337770954e-05,8.818203787086532e-05,2.3391019567498006e-05,-0.0013046707026660442,0.0014136788668110967,-9.817695617675781,0,0,25.274169921875,1,1,760,799,1768451513.2203262,2.519825
IMU,4264960,0,7.462006760761142e-05,5.6329525250475854e-05,3.788888352573849e-05,-0.0014027691213414073,-0.0016924155643209815,-9.817649841308594,0,0,25.274169921875,1,1,999,999,1768451513.2203262,2.519825
IMU,4284952,1,7.103879033820704e-05,0.00032317673321813345,-2.0798837795155123e-05,-0.0009416863904334605,-0.00043337937677279115,-9.819686889648438,0,0,25.27548599243164,1,1,760,799,1768451513.240318,2.539817
IMU,4284952,0,6.0062560805818066e-05,7.565964187961072e-05,1.3926186511525884e-05,-0.001757559715770185,-0.0010981664527207613,-9.816614151000977,0,0,25.27548599243164,1,1,999,999,1768451513.240318,2.539817
IMU,4304944,1,5.902102202526294e-05,0.00025837935390882194,8.86123234522529e-05,-0.0004614796198438853,-0.0024819986429065466,-9.81788444519043,0,0,25.27680015563965,1,1,760,799,1768451513.2603102,2.559809
IMU,4304944,0,3.26869121636264e-05,6.64301187498495e-05,0.00012148132373113185,-0.0016602334799245,-0.0017834112513810396,-9.817259788513184,0,0,25.27680015563965,1,1,999,999,1768451513.2603102,2.559809
IMU,4324936,1,7.118278972484404e-06,0.0003213983727619052,-0.0001785665372153744,-0.0003650905564427376,-0.0016355213010683656,-9.817708015441895,0,0,25.278114318847656,1,1,760,799,1768451513.280302,2.579801
IMU,4324936,0,2.17992073885398e-05,9.868701454252005e-05,5.6039778428385034e-05,-0.000392644084058702,-0.0007559835794381797,-9.817394256591797,0,0,25.278114318847656,1,1,999,999,1768451513.280302,2.579801
IMU,4344928,1,-8.249980965047143e-06,0.00037426705239340663,-0.00017315773584414274,-0.0011022686958312988,-0.0012481757439672947,-9.81957721710205,0,0,25.279430389404297,1,1,760,799,1768451513.3002942,2.599793
IMU,4344928,0,5.2601626521209255e-05,9.238060738425702e-05,6.9618814450223e-05,-0.0015136534348130226,-0.0011446235002949834,-9.817534446716309,0,0,25.279430389404297,1,1,999,999,1768451513.3002942,2.599793
IMU,4364920,1,0.0001423385547241196,3.013156856468413e-05,-8.221767348004505e-05,-0.0019604526460170746,-0.0013514204183593392,-9.816720962524414,0,0,25.280744552612305,1,1,760,799,1768451513.320286,2.619785
IMU,4364920,0,0.0001202044149977155,6.0783630033256486e-05,5.029528256272897e-05,-0.00026736213476397097,-0.0011570770293474197,-9.816594123840332,0,0,25.280744552612305,1,1,999,999,1768451513.320286,2.619785
IMU,4384912,1,2.518618930480443e-05,7.651502528460696e-05,-4.3883235775865614e-05,-0.001348807942122221,-0.001035236637108028,-9.816733360290527,0,0,25.282058715820312,1,1,760,799,1768451513.3402781,2.639777
IMU,4384912,0,0.00010559000656940043,0.00012285320553928614,9.495596896158531e-05,-0.0011984133161604404,-0.0002846198040060699,-9.816171646118164,0,0,25.282058715820312,1,1,999,999,1768451513.3402781,2.639777
IMU,4404904,0,8.468349551549181e-05,3.633083906606771e-05,4.603249180945568e-05,-0.0014604449970647693,-0.0012069272343069315,-9.816250801086426,0,0,25.28337287902832,1,1,999,999,1768451513.36027,2.659769
IMU,4404904,1,-0.00011910348985111341,0.00016978416533675045,5.698811946786009e-06,-0.000761316972784698,-0.0008418089710175991,-9.818073272705078,0,0,25.28337287902832,1,1,760,799,1768451513.36027,2.659769
IMU,4424896,0,8.599369903095067e-05,4.459927367861383e-05,5.6635395594639704e-05,-0.0018697024788707495,-0.0015808474272489548,-9.817085266113281,0,0,25.284687042236328,1,1,999,999,1768451513.3802621,2.679761
IMU,4424896,1,3.903167089447379e-05,0.00010075077443616465,-3.438662133703474e-06,-0.000488988240249455,-0.00042585120536386967,-9.817699432373047,0,0,25.284687042236328,1,1,760,799,1768451513.3802621,2.679761
IMU,4444888,0,8.726192027097568e-05,0.00016158570360857993,0.00012081254681106657,-0.0002828753786161542,-0.0015996100846678019,-9.818819046020508,0,0,25.28600311279297,1,1,999,999,1768451513.4002542,2.699753
IMU,4444888,1,0.00028068857500329614,0.00010397291043773293,9.518970728095155e-06,0.001346730743534863,0.0005757108447141945,-9.816579818725586,0,0,25.28600311279297,1,1,760,799,1768451513.4002542,2.699753
IMU,4464880,0,3.1975298497854965e-06,0.00010697401012293994,6.146726809674874e-05,-0.0009282671962864697,-0.0004266336909495294,-9.817933082580566,0,0,25.287315368652344,1,1,999,999,1768451513.4202461,2.719745
IMU,4464880,1,6.794408545829356e-05,0.00012277689529582858,2.3721137040411122e-05,0.0009009791538119316,-0.002122935838997364,-9.815929412841797,0,0,25.287315368652344,1,1,760,799,1768451513.4202461,2.719745
IMU,4484872,0,0.00015816967061255127,8.758606782066636e-06,7.52420091885142e-05,-0.0014893659390509129,-0.00048590602818876505,-9.816422462463379,0,0,25.288631439208984,1,1,999,999,1768451513.4402382,2.739737
IMU,4484872,1,0.00012511455861385912,-0.00013604105333797634,-2.0177127225906588e-05,-0.0015527061186730862,-6.335791840683669e-05,-9.816932678222656,0,0,25.288631439208984,1,1,760,799,1768451513.4402382,2.739737
IMU,4504864,0,7.365735655184835e-05,3.318413291708566e-05,4.957232886226848e-05,-0.0013611961621791124,-0.0010311829391866922,-9.817671775817871,0,0,25.28994369506836,1,1,999,999,1768451513.46023,2.759729
IMU,4504864,1,0.00014830543659627438,8.948553295340389e-05,0.0001917108311317861,-0.0012613192666321993,-0.0004111567686777562,-9.817566871643066,0,0,25.28994369506836,1,1,760,799,1768451513.46023,2.759729
IMU,4524856,0,6.981413753237575e-05,8.605798211647198e-05,3.510623355396092e-05,-0.0007162190740928054,-0.0005207266076467931,-9.817743301391602,0,0,25.291257858276367,1,1,999,999,1768451513.4802222,2.779721
IMU,4524856,1,0.00014101422857493162,0.00016458393656648695,0.00021424962324090302,-0.000662097183521837,-0.0026897015050053596,-9.816169738769531,0,0,25.291257858276367,1,1,760,799,1768451513.4802222,2.779721
IMU,4544848,0,7.458377513103187e-05,0.0001040103888954036,-4.6644148824270815e-05,-0.0021702165249735117,-0.0010879712644964457,-9.817110061645508,0,0,25.292572021484375,1,1,999,999,1768451513.500214,2.799713
IMU,4544848,1,5.687155498890206e-05,0.00018589379033073783,-0.00011928363528568298,-0.001049770973622799,-0.002083112020045519,-9.818750381469727,0,0,25.292572021484375,1,1,760,799,1768451513.500214,2.799713
IMU,4564840,0,0.0001185226283269003,9.452163067180663e-05,5.662331386702135e-05,-0.0011880274396389723,-0.0005329496343620121,-9.81755256652832,0,0,25.293886184692383,1,1,999,999,1768451513.5202062,2.819705
IMU,4564840,1,-0.0001615477813174948,-8.36586914374493e-05,0.00021576177095994353,-1.174727458419511e-06,-0.0023356047458946705,-9.8182954788208,0,0,25.293886184692383,1,1,760,799,1768451513.5202062,2.819705
IMU,4584832,0,6.670258881058544e-05,1.686114410404116e-05,7.341891614487395e-05,-0.0006010340293869376,-0.0013650362379848957,-9.81753158569336,0,0,25.29520034790039,1,1,999,999,1768451513.540198,2.839697
IMU,4584832,1,-0.0001006836537271738,0.00010524324898142368,7.904646918177605e-05,-0.0007220736588351429,-0.0016936910105869174,-9.815078735351562,0,0,25.29520034790039,1,1,760,799,1768451513.540198,2.839697
IMU,4604824,0,0.00010237398964818567,-1.5488432836718857e-05,2.5004523195093498e-05,-0.000958930526394397,-0.0009708692668937147,-9.817262649536133,0,0,25.296512603759766,1,1,999,999,1768451513.5601902,2.859689
IMU,4604824,1,-2.975903043989092e-05,-6.837483670096844e-05,0.00029251017258502543,-0.0007201805710792542,-0.0019160339143127203,-9.817351341247559,0,0,25.296512603759766,1,1,760,799,1768451513.5601902,2.859689
IMU,4624816,0,4.3964930227957666e-05,1.9282721041236073e-05,1.70197818079032e-05,-0.0005306472303345799,-0.00025561609072610736,-9.81693172454834,0,0,25.297826766967773,1,1,999,999,1768451513.580182,2.879681
IMU,4624816,1,-0.00015547615475952625,3.032690437976271e-05,0.00010932094301097095,-0.0002742692595347762,-0.0018984884954988956,-9.817636489868164,0,0,25.297826766967773,1,1,760,799,1768451513.580182,2.879681
IMU,4644808,0,9.849984780885279e-05,0.00011770935816457495,5.857226642547175e-05,-0.0007593085174448788,-0.001168442191556096,-9.818106651306152,0,0,25.29914093017578,1,1,999,999,1768451513.6001742,2.899673
IMU,4644808,1,0.00012626269017346203,0.000329752016114071,0.0001171498151961714,0.0006871674559079111,-6.961289909668267e-05,-9.818887710571289,0,0,25.29914093017578,1,1,760,799,1768451513.6001742,2.899673
IMU,4664800,0,8.513413195032626e-05,-2.2989665012573823e-05,6.61415106151253e-05,-0.00015736022032797337,-0.0007775041740387678,-9.817827224731445,0,0,25.300453186035156,1,1,999,999,1768451513.620166,2.919665
IMU,4664800,1,0.00019177570356987417,0.00021006661700084805,0.00010837620357051492,-0.0009884042665362358,-0.0006341754924505949,-9.820475578308105,0,0,25.300453186035156,1,1,760,799,1768451513.620166,2.919665
IMU,4684792,0,0.00010678803664632142,5.928725659032352e-05,3.4114887967007235e-05,-0.000720064272172749,-0.00011638023715931922,-9.81757926940918,0,0,25.30176544189453,1,1,999,999,1768451513.6401582,2.939657
IMU,4684792,1,0.00028810693765990436,6.704265251755714e-05,6.034271063981578e-05,-0.0017915716161951423,-0.0014080058317631483,-9.819239616394043,0,0,25.30176544189453,1,1,760,799,1768451513.6401582,2.939657
IMU,4704784,0,-6.424149432859849e-06,9.090492676477879e-05,8.117464312817901e-05,-0.0012839590199291706,-0.00014597676636185497,-9.817058563232422,0,0,25.30307960510254,1,1,999,999,1768451513.66015,2.959649
IMU,4704784,1,0.00012057348067173734,8.221805182984099e-05,0.0003041377931367606,-0.0005399176734499633,-0.0005354474415071309,-9.815185546875,0,0,25.30307960510254,1,1,760,799,1768451513.66015,2.959649
IMU,4724776,0,9.591731941327453e-05,1.8504273612052202e-05,6.983932689763606e-05,-0.0007064871024340391,-0.000411023705964908,-9.818598747253418,0,0,25.304393768310547,1,1,999,999,1768451513.6801422,2.979641
IMU,4724776,1,0.00012055882689310238,0.00012781268742401153,0.00018302485113963485,-0.0018871293868869543,-0.00017151585780084133,-9.818830490112305,0,0,25.304393768310547,1,1,760,799,1768451513.6801422,2.979641
IMU,4744768,0,0.00011835509940283373,4.2959884012816474e-05,1.8803681086865254e-05,-0.001953264232724905,-0.000716661976184696,-9.818058013916016,0,0,25.305706024169922,1,1,999,999,1768451513.700134,2.999633
IMU,4744768,1,0.00028031005058437586,-3.601222124416381e-05,0.00014616103726439178,-0.002131393412128091,0.0006156137678772211,-9.818618774414062,0,0,25.305706024169922,1,1,760,799,1768451513.700134,2.999633
IMU,4764760,1,0.00011680080933729187,0.000248255004407838,0.00014011075836606324,-0.003452517092227936,0.0006726009887643158,-9.817962646484375,0,0,25.307018280029297,1,1,760,799,1768451513.7201262,3.019625
IMU,4764760,0,8.003936818568036e-05,5.242492625257e-05,3.2615371310384944e-05,-0.0015914514660835266,-0.0008330855634994805,-9.817548751831055,0,0,25.307018280029297,1,1,999,999,1768451513.7201262,3.019625
IMU,4784752,0,0.00010506552644073963,9.358286479255185e-05,0.0001025421661324799,-0.000441134674474597,-0.0008653515251353383,-9.817853927612305,0,0,25.308332443237305,1,1,999,999,1768451513.740118,3.039617
IMU,4784752,1,-2.483317075530067e-05,2.1148427549633197e-05,0.00021042878506705165,-0.0018431930802762508,-0.0002037972881225869,-9.819929122924805,0,0,25.308332443237305,1,1,760,799,1768451513.740118,3.039617
IMU,4804744,1,0.00028985124663449824,0.00024414638755843043,-1.2698066711891443e-05,-0.0003480493905954063,0.00022432251716963947,-9.8173828125,0,0,25.30964469909668,1,1,760,799,1768451513.7601101,3.059609
IMU,4804744,0,9.590127592673525e-05,0.00012963353947270662,0.00011222929606446996,-0.0009685358963906765,-0.0017998653929680586,-9.818524360656738,0,0,25.30964469909668,1,1,999,999,1768451513.7601101,3.059609
IMU,4824736,1,-0.00011017613724106923,8.859430818120018e-05,0.00032655929680913687,0.0018655811436474323,-0.0005375376204028726,-9.817326545715332,0,0,25.310956954956055,1,1,760,799,1768451513.7801023,3.079601
IMU,4824736,0,-2.3745151338516735e-06,0.0001127796494984068,1.2740675629174802e-05,-0.001185213797725737,-0.001230892725288868,-9.817620277404785,0,0,25.310956954956055,1,1,999,999,1768451513.7801023,3.079601
IMU,4844728,1,-7.115566404536366e-05,1.2209394299134146e-05,0.000172455795109272,0.0005942003335803747,-0.0025062919594347477,-9.815696716308594,0,0,25.31226921081543,1,1,760,799,1768451513.8000941,3.099593
IMU,4844728,0,8.7916967459023e-05,0.00011720827751560137,4.206092853564769e-06,-0.0011610302608460188,-0.0015590570401400328,-9.817107200622559,0,0,25.31226921081543,1,1,999,999,1768451513.8000941,3.099593
IMU,4864720,1,0.00017001820378936827,0.00016634093481115997,-5.9239646361675113e-05,-0.0007759146392345428,-0.0015883396845310926,-9.819365501403809,0,0,25.313583374023438,1,1,760,799,1768451513.8200862,3.119585
IMU,4864720,0,0.0001687033218331635,8.437819633400068e-05,9.630818385630846e-05,-0.0011777994222939014,-0.0006968643283471465,-9.817266464233398,0,0,25.313583374023438,1,1,999,999,1768451513.8200862,3.119585
IMU,4884712,1,0.00010718288103817031,5.777674959972501e-05,8.46206967253238e-05,0.0006062894826754928,-0.001088464050553739,-9.816715240478516,0,0,25.314895629882812,1,1,760,799,1768451513.840078,3.139577
IMU,4884712,0,4.837090818909928e-05,4.927651025354862e-05,8.651611278764904e-05,-0.0010625992435961962,-0.0016002045013010502,-9.817752838134766,0,0,25.314895629882812,1,1,999,999,1768451513.840078,3.139577
IMU,4904704,1,0.00018755831115413457,-0.00010403272608527914,1.0729700079536997e-05,-0.0030685814563184977,-0.001923382980749011,-9.816394805908203,0,0,25.316207885742188,1,1,760,799,1768451513.8600702,3.159569
IMU,4904704,0,4.132867616135627e-05,1.083924598788144e-05,4.569323209580034e-05,-0.002581188455224037,-0.0018824874423444271,-9.81688404083252,0,0,25.316207885742188,1,1,999,999,1768451513.8600702,3.159569
IMU,4924696,1,-5.3482224757317454e-05,-7.989592268131673e-05,0.00013221216795500368,-0.0018271385924890637,0.0010849093087017536,-9.819015502929688,0,0,25.31751823425293,1,1,760,799,1768451513.880062,3.179561
IMU,4924696,0,6.590862176381052e-05,-1.6984386093099602e-06,0.00016585805860813707,-0.0012122548650950193,-0.0011969630140811205,-9.816628456115723,0,0,25.31751823425293,1,1,999,999,1768451513.880062,3.179561
IMU,4944688,1,-2.4123632101691328e-05,-3.019765608769376e-05,-1.0574979569355492e-05,0.0011337409960106015,0.0005021155811846256,-9.82022476196289,0,0,25.318830490112305,1,1,760,799,1768451513.9000542,3.199553
IMU,4944688,0,0.00013907243555877358,4.328956492827274e-05,5.138224514666945e-05,-0.00037975431769154966,-0.001037074951454997,-9.818613052368164,0,0,25.318830490112305,1,1,999,999,1768451513.9000542,3.199553
IMU,4964680,1,3.609055784181692e-05,-5.936694651609287e-05,0.00010087458213092759,0.0004741340526379645,0.0007696608081459999,-9.818965911865234,0,0,25.320144653320312,1,1,760,799,1768451513.920046,3.219545
IMU,4964680,0,9.902731835609302e-05,2.25072362809442e-05,3.147919778712094e-05,-0.0016913244035094976,-0.002587216906249523,-9.81783390045166,0,0,25.320144653320312,1,1,999,999,1768451513.920046,3.219545
IMU,4984672,1,9.808898175833747e-05,-0.00010787800420075655,0.00028391554951667786,-0.0011793021112680435,-0.0012424218002706766,-9.819449424743652,0,0,25.321455001831055,1,1,760,799,1768451513.9400382,3.239537
IMU,4984672,0,4.140161763643846e-05,6.10405913903378e-05,4.381296457722783e-05,-0.0006766823353245854,-0.0012998764868825674,-9.816484451293945,0,0,25.321455001831055,1,1,999,999,1768451513.9400382,3.239537
IMU,5004664,1,7.313087735383306e-06,1.0585085874481592e-05,0.00021549317170865834,-0.0002473565982654691,-8.299882028950378e-05,-9.81723690032959,0,0,25.32276725769043,1,1,760,799,1768451513.96003,3.259529
IMU,5004664,0,5.1752340368693694e-05,8.659478044137359e-05,0.00013353500980883837,-0.0012625560630112886,-0.0009690610459074378,-9.818655014038086,0,0,25.32276725769043,1,1,999,999,1768451513.96003,3.259529
IMU,5024656,1,6.430873327190056e-05,-5.733643047278747e-05,7.179482054198161e-05,-0.001589217223227024,-0.002345769666135311,-9.814637184143066,0,0,25.324079513549805,1,1,760,799,1768451513.9800222,3.279521
IMU,5024656,0,6.634500459767878e-05,0.00018211516726296395,8.803680975688621e-05,-0.0022006481885910034,-0.0009851246140897274,-9.818092346191406,0,0,25.324079513549805,1,1,999,999,1768451513.9800222,3.279521
IMU,5044648,1,3.7090569094289094e-05,0.0003072732943110168,0.0002234272687928751,-0.0013539037900045514,-0.0010164434788748622,-9.818239212036133,0,0,25.325389862060547,1,1,760,799,1768451514.000014,3.299513
IMU,5044648,0,5.4501608246937394e-05,9.857512486632913e-05,7.373055268544704e-05,-0.0007342766039073467,-0.0008729792316444218,-9.816404342651367,0,0,25.325389862060547,1,1,999,999,1768451514.000014,3.299513
IMU,5064640,1,-0.0001685551251284778,-4.7048641135916114e-05,0.0001962845417438075,-0.0018502355087548494,-0.0006605108501389623,-9.818656921386719,0,0,25.326702117919922,1,1,760,799,1768451514.0200062,3.319505
IMU,5064640,0,9.868856432149187e-05,3.274832124589011e-05,2.5808305508689955e-05,0.000546380237210542,-0.0011434954358264804,-9.816694259643555,0,0,25.326702117919922,1,1,999,999,1768451514.0200062,3.319505
IMU,5084632,1,-0.00015442406584043056,-6.846209544164594e-06,0.00012228265404701233,-0.003393410472199321,-0.0009978425223380327,-9.816510200500488,0,0,25.328014373779297,1,1,760,799,1768451514.039998,3.339497
IMU,5084632,0,0.00010602555994410068,9.962829062715173e-05,9.502715693088248e-05,-0.0005229871603660285,-0.0020518493838608265,-9.81781005859375,0,0,25.328014373779297,1,1,999,999,1768451514.039998,3.339497
IMU,5104624,1,0.0001329278020421043,0.0002146751940017566,-2.7494725145515986e-05,-0.0014307346427813172,0.0010747070191428065,-9.817276954650879,0,0,25.32932472229004,1,1,760,799,1768451514.0599902,3.359489
IMU,5104624,0,1.61257939907955e-05,2.9499537049559876e-05,4.6562876377720386e-05,-0.0005316006718203425,-0.0007604506681673229,-9.818193435668945,0,0,25.32932472229004,1,1,999,999,1768451514.0599902,3.359489
IMU,5124616,1,0.0003228145942557603,-7.146495045162737e-05,0.00017345430387649685,-0.0012274733744561672,0.0003967511001974344,-9.819112777709961,0,0,25.330636978149414,1,1,760,799,1768451514.079982,3.379481
IMU,5124616,0,0.00013144942931830883,2.4781129468465224e-05,0.0001249162305612117,-0.0012867397163063288,-0.0005867887521162629,-9.818683624267578,0,0,25.330636978149414,1,1,999,999,1768451514.079982,3.379481
IMU,5144608,1,0.00019341173174325377,-0.00014437372738029808,9.326435247203335e-05,-0.0026225128676742315,-0.0016566090052947402,-9.81838321685791,0,0,25.331947326660156,1,1,760,799,1768451514.0999742,3.399473
IMU,5144608,0,0.00011363344674464315,2.8856778953922912e-05,0.00011488071322673932,-0.0012992373667657375,-0.001417127437889576,-9.817071914672852,0,0,25.331947326660156,1,1,999,999,1768451514.0999742,3.399473
IMU,5164600,1,-0.00012748950393870473,5.2866293117403984e-05,0.00015838137187529355,0.00043309101602062583,-0.0011806682450696826,-9.819145202636719,0,0,25.33325958251953,1,1,760,799,1768451514.119966,3.419465
IMU,5164600,0,4.2025945731438696e-05,0.00011622105375863612,-2.7602658519754186e-05,1.0119073522218969e-05,-0.0006419999990612268,-9.817191123962402,0,0,25.33325958251953,1,1,999,999,1768451514.119966,3.419465
IMU,5184592,1,0.0004490456194616854,-5.1345632527954876e-05,-3.8440626667579636e-05,-0.0023167147301137447,-0.0018156208097934723,-9.817728042602539,0,0,25.334569931030273,1,1,760,799,1768451514.1399581,3.439457
IMU,5184592,0,6.35076648904942e-05,6.289542216109112e-05,4.878844629274681e-05,-0.0011073352070525289,-0.0001805034844437614,-9.817075729370117,0,0,25.334569931030273,1,1,999,999,1768451514.1399581,3.439457
IMU,5204584,1,0.0003593168512452394,-3.4080963814631104e-05,5.082451389171183e-05,-0.00041983346454799175,0.0011049633612856269,-9.816040992736816,0,0,25.335880279541016,1,1,760,799,1768451514.15995,3.459449
IMU,5204584,0,7.048927363939583e-05,6.918558938195929e-05,4.0394708776148036e-05,-0.001694645150564611,-0.0009392801439389586,-9.817818641662598,0,0,25.335880279541016,1,1,999,999,1768451514.15995,3.459449
IMU,5224576,1,-6.946483335923404e-05,0.0001900283677969128,0.00030989147489890456,-0.0017309054965153337,0.001179814338684082,-9.817548751831055,0,0,25.33719253540039,1,1,760,799,1768451514.1799421,3.479441
IMU,5224576,0,6.455082620959729e-05,-2.3440850327460794e-07,5.6987897551152855e-05,-0.001092592952772975,-0.00021304504480212927,-9.817367553710938,0,0,25.33719253540039,1,1,999,999,1768451514.1799421,3.479441
IMU,5244568,1,-4.467774124350399e-05,0.0001933316234499216,-4.322781023802236e-05,-0.0015982715412974358,-0.002202346920967102,-9.815738677978516,0,0,25.338502883911133,1,1,760,799,1768451514.1999342,3.499433
IMU,5244568,0,0.00010436690354254097,4.400944817462005e-06,4.1205144952982664e-05,-0.0017310203984379768,-0.0005492761847563088,-9.817800521850586,0,0,25.338502883911133,1,1,999,999,1768451514.1999342,3.499433
IMU,5264560,1,-6.58113503959612e-06,0.00013514881720766425,5.3202107665129006e-05,-0.0017697667935863137,-0.002177739515900612,-9.816720962524414,0,0,25.339813232421875,1,1,760,799,1768451514.219926,3.519425
IMU,5264560,0,0.0001005369340418838,4.504196112975478e-05,0.00012086695642210543,-0.0003898446448147297,-0.0005394924664869905,-9.817543029785156,0,0,25.339813232421875,1,1,999,999,1768451514.219926,3.519425
IMU,5284552,1,9.523965127300471e-05,0.00010734725219663233,9.599424083717167e-05,-0.0019680922850966454,-0.0013466649688780308,-9.818988800048828,0,0,25.34112548828125,1,1,760,799,1768451514.2399182,3.539417
IMU,5284552,0,5.8011399232782423e-05,0.00010556953930063173,1.5370675100712106e-05,-0.0008498606039211154,-0.0008038827800191939,-9.81757640838623,0,0,25.34112548828125,1,1,999,999,1768451514.2399182,3.539417
IMU,5304544,1,0.00010711853246903047,0.00015974088455550373,-0.00010232110798824579,0.001182040898129344,-0.00192063651047647,-9.817052841186523,0,0,25.34243392944336,1,1,760,799,1768451514.25991,3.559409
IMU,5304544,0,5.791494913864881e-05,9.45928695728071e-05,-8.678937774675433e-06,0.00022372293460648507,-0.0006609840202145278,-9.817445755004883,0,0,25.34243392944336,1,1,999,999,1768451514.25991,3.559409
IMU,5324536,1,1.4809131243964657e-05,0.00020860982476733625,0.00027473963564261794,0.0015727949794381857,-0.0035020173527300358,-9.8148775100708,0,0,25.3437442779541,1,1,760,799,1768451514.2799022,3.579401
IMU,5324536,0,2.1961828679195605e-05,0.00014411559095606208,9.593442518962547e-05,-0.0009161833440884948,-0.0007507501868531108,-9.818257331848145,0,0,25.3437442779541,1,1,999,999,1768451514.2799022,3.579401
IMU,5344528,1,6.261827365960926e-05,9.255473560187966e-05,-0.0001277478877454996,6.748627492925152e-05,-6.084679625928402e-05,-9.817399978637695,0,0,25.344989776611328,1,1,760,799,1768451514.299894,3.599393
IMU,5344528,0,-4.8436988436151296e-05,9.23381739994511e-05,2.1615884179482237e-05,-0.0006357780075632036,-0.0008960507111623883,-9.817865371704102,0,0,25.345054626464844,1,1,999,999,1768451514.299894,3.599393
IMU,5364520,1,0.00015805069415364414,0.00018094066763296723,-1.5890302165644243e-05,-0.0014357705367729068,-0.0005789385759271681,-9.81677532196045,0,0,25.34630012512207,1,1,760,799,1768451514.3198862,3.619385
IMU,5364520,0,5.884108759346418e-05,1.5046733096824028e-05,0.0001662579015828669,-0.0008712956914678216,-0.0011854402255266905,-9.817841529846191,0,0,25.34636688232422,1,1,999,999,1768451514.3198862,3.619385
IMU,5384512,1,9.023170423461124e-05,-0.00013501173816621304,0.0002233381528640166,-0.0012785197468474507,0.0008739536278881133,-9.816350936889648,0,0,25.347610473632812,1,1,760,799,1768451514.339878,3.639377
IMU,5384512,0,7.259068661369383e-05,0.00011609168723225594,5.360708018997684e-05,-0.0010474732844159007,-0.0003492497489787638,-9.817070007324219,0,0,25.347675323486328,1,1,999,999,1768451514.339878,3.639377
IMU,5404504,1,-0.00016161253734026104,0.00023706676438450813,0.0003368206962477416,0.0009665306424722075,-0.0003241042431909591,-9.817289352416992,0,0,25.348920822143555,1,1,760,799,1768451514.3598702,3.659369
IMU,5404504,0,4.1240145947085693e-05,2.904844041040633e-05,1.4343416296469513e-05,-0.0009236742043867707,-0.0009381740819662809,-9.817197799682617,0,0,25.34898567199707,1,1,999,999,1768451514.3598702,3.659369
IMU,5424496,1,5.263663115329109e-05,0.00014177942648530006,-3.904671302734641e-06,-0.002435591071844101,-0.0018279069336131215,-9.815196990966797,0,0,25.350231170654297,1,1,760,799,1768451514.379862,3.679361
IMU,5424496,0,0.00011190056829946116,8.94836921361275e-05,5.969858102616854e-05,-0.0012507853098213673,-0.0010578023502603173,-9.816877365112305,0,0,25.350296020507812,1,1,999,999,1768451514.379862,3.679361
IMU,5444488,1,-3.838849806925282e-06,0.00015586937661282718,0.00024791486794129014,-0.0006885035545565188,-0.001958635402843356,-9.81923770904541,0,0,25.35154151916504,1,1,760,799,1768451514.3998542,3.699353
IMU,5444488,0,5.202222382649779e-05,4.0689596062293276e-05,7.047652616165578e-05,-0.0012025507166981697,-0.0011035873321816325,-9.817107200622559,0,0,25.351604461669922,1,1,999,999,1768451514.3998542,3.699353
IMU,5464480,1,-7.294309762073681e-05,8.493353379890323e-05,-1.6722069631214254e-05,-0.000995130860246718,0.00019089739362243563,-9.816790580749512,0,0,25.35284996032715,1,1,760,799,1768451514.419846,3.719345
IMU,5464480,0,5.408566357800737e-05,7.765812370053027e-06,4.9955771828535944e-05,-0.0015422834549099207,-0.001033640350215137,-9.81816291809082,0,0,25.352914810180664,1,1,999,999,1768451514.419846,3.719345
IMU,5484472,1,-5.599811265710741e-05,-6.67610511300154e-05,0.00019241181144025177,-0.0008992708753794432,-0.000808084849268198,-9.817137718200684,0,0,25.35416030883789,1,1,760,799,1768451514.4398382,3.739337
IMU,5484472,0,0.00011722623457899317,7.487325638066977e-05,0.00010623842536006123,-0.0007201453554444015,-0.001026303507387638,-9.817034721374512,0,0,25.354225158691406,1,1,999,999,1768451514.4398382,3.739337
IMU,5504464,1,9.643103840062395e-05,4.7034765884745866e-05,5.049234096077271e-05,-0.0018354589119553566,-0.0005996430409140885,-9.818236351013184,0,0,25.355470657348633,1,1,760,799,1768451514.45983,3.759329
IMU,5504464,0,8.987655019154772e-05,9.427773329662159e-05,6.816578388679773e-05,-0.0006281506503000855,-0.002232975559309125,-9.816808700561523,0,0,25.35553550720215,1,1,999,999,1768451514.45983,3.759329
IMU,5524456,1,2.8519874831545167e-05,-2.4283479433506727e-05,0.00031553380540572107,0.0013525767717510462,-7.779173029121011e-05,-9.818321228027344,0,0,25.356779098510742,1,1,760,799,1768451514.4798222,3.779321
IMU,5524456,0,4.749384243041277e-05,7.273806841112673e-05,0.00012630803394131362,-0.0001657482353039086,-0.0013751619262620807,-9.8175687789917,0,0,25.356843948364258,1,1,999,999,1768451514.4798222,3.779321
IMU,5544448,1,0.0001591885811649263,-0.00018513004761189222,-4.07705592806451e-05,-0.0005738988984376192,-0.001990200486034155,-9.817179679870605,0,0,25.358089447021484,1,1,760,799,1768451514.499814,3.799313
IMU,5544448,0,8.127644832711667e-05,6.745488462911453e-06,8.320297638420016e-05,-0.0012543931370601058,-0.0007728125201538205,-9.818166732788086,0,0,25.358154296875,1,1,999,999,1768451514.499814,3.799313
IMU,5564440,1,0.00011730440746759996,2.3212585801957175e-05,0.00012308057921472937,-0.0020372364670038223,-0.0011565303429961205,-9.818639755249023,0,0,25.359397888183594,1,1,760,799,1768451514.5198061,3.819305
IMU,5564440,0,0.00010554486652836204,7.067881961120293e-05,-6.330855285341386e-06,-0.0009833028307184577,-0.001028518658131361,-9.818037033081055,0,0,25.35946273803711,1,1,999,999,1768451514.5198061,3.819305
IMU,5584432,1,0.00010589000885374844,0.00013408214726950973,2.597703087303671e-06,-0.0003898048016708344,0.0001484332897234708,-9.818791389465332,0,0,25.360706329345703,1,1,760,799,1768451514.539798,3.839297
IMU,5584432,0,9.900548320729285e-05,0.00010992205352522433,8.825132681522518e-05,-0.0010881097987294197,-0.0005131083307787776,-9.81689453125,0,0,25.36077308654785,1,1,999,999,1768451514.539798,3.839297
IMU,5604424,1,0.00013982175732962787,-7.029589323792607e-05,8.406073175137863e-05,-0.0024295917246490717,-0.0017739974427968264,-9.81916618347168,0,0,25.362016677856445,1,1,760,799,1768451514.5597901,3.859289
IMU,5604424,0,6.639822095166892e-05,0.0001263617887161672,5.413311373558827e-05,-0.0005058617680333555,0.0003159323241561651,-9.81705379486084,0,0,25.362083435058594,1,1,999,999,1768451514.5597901,3.859289
IMU,5624416,1,0.0001302524033235386,0.00011604738392634317,5.064078504801728e-05,-0.0006311973556876183,0.0015924726612865925,-9.819551467895508,0,0,25.363327026367188,1,1,760,799,1768451514.5797822,3.879281
IMU,5624416,0,7.045932579785585e-05,0.00011442146933404729,0.00011488293239381164,-0.000976016977801919,-0.0008524621371179819,-9.816574096679688,0,0,25.363391876220703,1,1,999,999,1768451514.5797822,3.879281
IMU,5644408,1,-0.0002689735556486994,0.000286032329313457,0.00012722857354674488,-0.0009529836243018508,-0.0006322584813460708,-9.8164644241333,0,0,25.364635467529297,1,1,760,799,1768451514.5997741,3.899273
IMU,5644408,0,5.9327194321667776e-05,3.956990985898301e-05,0.0001404356735292822,-0.001213916577398777,-0.001556663541123271,-9.816474914550781,0,0,25.364700317382812,1,1,999,999,1768451514.5997741,3.899273
IMU,5664400,1,7.389840902760625e-06,-6.981234037084505e-06,6.099948950577527e-05,6.832876533735543e-05,0.0014114633668214083,-9.815255165100098,0,0,25.365943908691406,1,1,760,799,1768451514.6197662,3.919265
IMU,5664400,0,4.178112430963665e-05,4.201311821816489e-05,4.522154631558806e-05,-0.0019749286584556103,-0.001577642746269703,-9.817026138305664,0,0,25.366008758544922,1,1,999,999,1768451514.6197662,3.919265
IMU,5684392,1,0.00010132943862117827,5.501152918441221e-05,0.0001513675961177796,-0.0016504062805324793,-0.0006358414539135993,-9.818403244018555,0,0,25.367252349853516,1,1,760,799,1768451514.639758,3.939257
IMU,5684392,0,7.31401305529289e-05,2.9092017939547077e-05,0.00013128200953360647,-0.0013801711611449718,-0.0010951315052807331,-9.818336486816406,0,0,25.367319107055664,1,1,999,999,1768451514.639758,3.939257
IMU,5704384,1,-5.956404493190348e-05,-4.789563718077261e-06,9.142585622612387e-05,9.780103573575616e-05,-0.00014922473928891122,-9.817380905151367,0,0,25.368560791015625,1,1,760,799,1768451514.6597502,3.959249
IMU,5704384,0,5.014601265429519e-05,1.901993528008461e-05,5.7558107073418796e-05,-0.0007187706069089472,-0.0005719240289181471,-9.819296836853027,0,0,25.368627548217773,1,1,999,999,1768451514.6597502,3.959249
IMU,5724376,1,-8.738768519833684e-05,0.00013439964095596224,8.05714080343023e-05,-0.0010505698155611753,-0.0027107479982078075,-9.818424224853516,0,0,25.369871139526367,1,1,760,799,1768451514.679742,3.979241
IMU,5724376,0,4.69324404548388e-05,7.587010622955859e-05,7.63058487791568e-05,-0.0020980751141905785,-0.0019691113848239183,-9.817712783813477,0,0,25.369935989379883,1,1,999,999,1768451514.679742,3.979241
IMU,5744368,1,-2.682612102944404e-05,-4.068466296303086e-05,0.00019064392836298794,-0.0017713959095999599,-8.926002192310989e-05,-9.817886352539062,0,0,25.371179580688477,1,1,760,799,1768451514.6997342,3.999233
IMU,5744368,0,9.934753325069323e-05,0.00013434667198453099,9.10457456484437e-05,-0.0014990721829235554,-0.0024236738681793213,-9.817204475402832,0,0,25.371244430541992,1,1,999,999,1768451514.6997342,3.999233
IMU,5764360,1,0.00028441319591365755,-4.833012280869298e-05,-4.082746818312444e-05,-0.002185458317399025,0.0005286294035613537,-9.818205833435059,0,0,25.372488021850586,1,1,760,799,1768451514.719726,4.019225
IMU,5764360,0,7.88642282714136e-05,0.0001343656040262431,8.145620085997507e-05,0.0006453273817896843,-0.0013287002220749855,-9.817277908325195,0,0,25.3725528717041,1,1,999,999,1768451514.719726,4.019225
IMU,5784352,1,0.00018101732712239027,8.065724978223443e-05,0.0001621899427846074,-0.00037837488343939185,-0.0010766059858724475,-9.818334579467773,0,0,25.373796463012695,1,1,760,799,1768451514.7397182,4.039217
IMU,5784352,0,9.252126619685441e-05,2.850895543815568e-05,9.733704064274207e-05,-0.0016462511848658323,-0.0014131454518064857,-9.817971229553223,0,0,25.37386131286621,1,1,999,999,1768451514.7397182,4.039217
IMU,5804344,1,0.00010354896221542731,0.00023851952573750168,0.00015719355724286288,-0.0016292245127260685,-0.0003281883546151221,-9.816995620727539,0,0,25.375102996826172,1,1,760,799,1768451514.75971,4.059209
IMU,5804344,0,4.735176480608061e-05,0.00010744961036834866,4.119654113310389e-05,-0.0006573123391717672,-0.0013888601679354906,-9.817914009094238,0,0,25.37516975402832,1,1,999,999,1768451514.75971,4.059209
IMU,5824336,1,9.739877714309841e-05,3.890535663231276e-05,0.00014820635260548443,-0.0005809621070511639,-0.002340487437322736,-9.817033767700195,0,0,25.376413345336914,1,1,760,799,1768451514.7797022,4.079201
IMU,5824336,0,8.866811549523845e-05,0.00015021207218524069,6.962525367271155e-05,-0.0007589323213323951,-0.0009668180136941373,-9.817327499389648,0,0,25.37647819519043,1,1,999,999,1768451514.7797022,4.079201
IMU,5844328,1,0.00024112884420901537,-1.027176040224731e-05,6.861830479465425e-05,-0.0025597948115319014,-0.004365166183561087,-9.819791793823242,0,0,25.37771987915039,1,1,760,799,1768451514.799694,4.099193
IMU,5844328,0,8.511531632393599e-05,0.00010223781282547861,0.00013711507199332118,-0.001274920767173171,-0.0011188802309334278,-9.818968772888184,0,0,25.37778663635254,1,1,999,999,1768451514.799694,4.099193
IMU,5864320,1,0.00016087644326034933,0.00014829593419563025,0.0002141568111255765,-0.00239357678219676,-0.0011337230680510402,-9.81815242767334,0,0,25.379030227661133,1,1,760,799,1768451514.8196862,4.119185
IMU,5864320,0,0.00010643007408361882,0.0001262649311684072,8.341946522705257e-05,-0.001027730293571949,0.00035494117764756083,-9.817901611328125,0,0,25.379093170166016,1,1,999,999,1768451514.8196862,4.119185
IMU,5884312,1,0.00011329375411150977,0.00017454399494454265,9.559121099300683e-05,-0.0010756622068583965,-0.0018430257914587855,-9.81658935546875,0,0,25.38033676147461,1,1,760,799,1768451514.839678,4.139177
IMU,5884312,0,3.7871868698857725e-05,7.199682295322418e-05,6.590617704205215e-05,-0.0012628888944163918,-0.0006905599148012698,-9.81879997253418,0,0,25.380403518676758,1,1,999,999,1768451514.839678,4.139177
IMU,5905137,1,1.0449414730828721e-05,6.237367051653564e-05,7.4910290095431264e-06,-0.00014529524196404964,-0.0017681391909718513,-9.81849479675293,0,0,25.381776809692383,1,1,760,799,1768451514.8605032,4.160002
IMU,5905137,0,0.00020187022164463997,8.753239671932533e-05,0.00011801101209130138,-0.0014206893974915147,-0.0006590939010493457,-9.817377090454102,0,0,25.381710052490234,1,1,999,999,1768451514.8605032,4.160002
IMU,5925129,1,8.882498514140025e-05,0.0004447404353413731,2.1943509636912495e-05,-0.0011880277888849378,-0.0031078786123543978,-9.816068649291992,0,0,25.38308334350586,1,1,760,799,1768451514.880495,4.179994
IMU,5925129,0,0.00011847444693557918,8.727153181098402e-05,4.451095810509287e-05,-0.0011350150452926755,-0.0012410145718604326,-9.816314697265625,0,0,25.383018493652344,1,1,999,999,1768451514.880495,4.179994
IMU,5945121,1,0.00019876545411534607,0.00031008978839963675,-3.544691207935102e-05,-0.0006596019957214594,-0.0017106997547671199,-9.815099716186523,0,0,25.38439178466797,1,1,760,799,1768451514.9004872,4.199986
IMU,5945121,0,0.0001504838146502152,9.066427446668968e-05,1.3685088561032899e-05,-0.0011280108010396361,-0.0013196367071941495,-9.816758155822754,0,0,25.384326934814453,1,1,999,999,1768451514.9004872,4.199986
IMU,5965113,1,0.00022906617959961295,9.298348231823184e-06,-3.398392800590955e-05,0.000456135137937963,-0.0016123366076499224,-9.816801071166992,0,0,25.385700225830078,1,1,760,799,1768451514.920479,4.219978
IMU,5965113,0,1.8089980585500598e-05,9.293399489251897e-05,0.00011975352390436456,-0.0002608138893265277,-0.0008474346832372248,-9.81787395477295,0,0,25.385700225830078,1,1,999,999,1768451514.920479,4.219978
IMU,5985105,1,-5.204000262892805e-05,1.66738209372852e-06,0.00011489955068100244,-0.0026158324908465147,-0.0007801085594110191,-9.818087577819824,0,0,25.387006759643555,1,1,760,799,1768451514.9404712,4.23997
IMU,5985105,0,3.309285602881573e-06,4.684067243942991e-05,0.00010551045124884695,-0.0013015837175771594,-0.001619911752641201,-9.818134307861328,0,0,25.387006759643555,1,1,999,999,1768451514.9404712,4.23997
IMU,6005097,0,0.00010311025835108012,0.00018252970767207444,0.00013320858124643564,-0.0013974668690934777,-0.0005453497287817299,-9.817988395690918,0,0,25.388315200805664,1,1,999,999,1768451514.960463,4.259962
IMU,6005097,1,9.142889030044898e-05,0.00014086089504417032,0.00016121793305501342,-0.0008128354093059897,-0.0006234754691831768,-9.817804336547852,0,0,25.388315200805664,1,1,760,799,1768451514.960463,4.259962
IMU,6025089,0,0.00011429336154833436,0.00016706029418855906,0.00010709894559113309,-0.0009481504093855619,-0.0007299004937522113,-9.817346572875977,0,0,25.38962173461914,1,1,999,999,1768451514.9804552,4.279954
IMU,6025089,1,0.00022307693143375218,7.571604510303587e-05,0.00021565832139458507,0.0006315440405160189,0.0006432135123759508,-9.815215110778809,0,0,25.38962173461914,1,1,760,799,1768451514.9804552,4.279954
IMU,6045081,0,0.00010095621109940112,2.2244505089474842e-05,0.00011475173232611269,-0.001894317101687193,-0.0010915036546066403,-9.816360473632812,0,0,25.390928268432617,1,1,999,999,1768451515.000447,4.299946
IMU,6045081,1,6.340310210362077e-05,-6.200508505571634e-05,7.181055843830109e-05,-0.0033876504749059677,-0.0020563409198075533,-9.818767547607422,0,0,25.390928268432617,1,1,760,799,1768451515.000447,4.299946
IMU,6065073,0,0.0001072117083822377,8.068879833444953e-05,0.0001581217220518738,0.00013162520190235227,-0.0027942084707319736,-9.817205429077148,0,0,25.392234802246094,1,1,999,999,1768451515.0204391,4.319938
IMU,6065073,1,-1.0485136954230256e-06,0.0002555375103838742,8.487027662340552e-05,-0.0017067943699657917,-0.0007405192591249943,-9.817573547363281,0,0,25.392234802246094,1,1,760,799,1768451515.0204391,4.319938
IMU,6085065,0,0.00011074684880441055,5.1884686399716884e-05,7.413469575112686e-05,-0.0002229944075224921,-0.0005578941199928522,-9.817590713500977,0,0,25.393543243408203,1,1,999,999,1768451515.040431,4.33993
IMU,6085065,1,0.00010356007987866178,6.781750562367961e-05,0.0002637512516230345,-0.0018266926053911448,-0.0015340889804065228,-9.81594467163086,0,0,25.393543243408203,1,1,760,799,1768451515.040431,4.33993
IMU,6105057,0,4.6078352170297876e-05,9.401340503245592e-05,0.00012887653429061174,-0.0019173921318724751,0.00016098788182716817,-9.818111419677734,0,0,25.39484977722168,1,1,999,999,1768451515.0604231,4.359922
IMU,6105057,1,0.00011032770271413028,0.00027464068261906505,0.0003012708912137896,-0.0012866011820733547,0.000658445933368057,-9.81447982788086,0,0,25.39484977722168,1,1,760,799,1768451515.0604231,4.359922
IMU,6125049,0,5.6523189414292574e-05,4.1271527152275667e-05,0.00012162850907770917,-0.001430109958164394,3.6038283724337816e-05,-9.817005157470703,0,0,25.39615821838379,1,1,999,999,1768451515.0804152,4.379914
IMU,6125049,1,-0.0001545009872643277,0.0003342887794133276,0.00010189889871980995,-0.0010677637765184045,-0.0020201040897518396,-9.818788528442383,0,0,25.39615821838379,1,1,760,799,1768451515.0804152,4.379914
IMU,6145041,1,3.278973963460885e-05,0.00032867753179743886,0.00023828620032873005,-0.0007352615939453244,-0.00022621976677328348,-9.820942878723145,0,0,25.397464752197266,1,1,760,799,1768451515.1004071,4.399906
IMU,6145041,0,8.711440023034811e-05,6.289581506280228e-05,0.00012988295929972082,-0.00041284525650553405,-0.0007450219127349555,-9.81761360168457,0,0,25.397464752197266,1,1,1000,1000,1768451515.1004071,4.399906
IMU,6165033,1,0.00013905928062740713,2.6737357984529808e-05,0.00023403872910421342,-0.00021651673887390643,-0.0035190735943615437,-9.817787170410156,0,0,25.398771286010742,1,1,760,799,1768451515.1203992,4.419898
IMU,6165033,0,9.843194857239723e-05,9.867993503576145e-05,9.994365245802328e-05,-0.0010284907184541225,-0.0006561037735082209,-9.81885051727295,0,0,25.398771286010742,1,1,1000,1000,1768451515.1203992,4.419898
IMU,6185025,1,7.203051791293547e-05,8.755882299738005e-05,-0.00010767468484118581,-0.0029072051402181387,-0.0035150391049683094,-9.818203926086426,0,0,25.40007781982422,1,1,760,799,1768451515.140391,4.43989
IMU,6185025,0,3.3798511140048504e-05,0.00015581253683194518,8.168660860974342e-05,-0.0005635169800370932,-0.0018640127964317799,-9.816810607910156,0,0,25.40007781982422,1,1,1000,1000,1768451515.140391,4.43989
IMU,6205017,1,0.0002932460338342935,-3.2181796996155754e-05,-0.0001238809054484591,-0.002245834330096841,-0.001684110495261848,-9.81502628326416,0,0,25.401384353637695,1,1,760,799,1768451515.1603832,4.459882
IMU,6205017,0,2.7409860194893554e-05,0.00012911466183140874,0.00012591505947057158,-0.00046360009582713246,-0.0012377940583974123,-9.817300796508789,0,0,25.401384353637695,1,1,1000,1000,1768451515.1603832,4.459882
IMU,6225009,0,5.40230430488009e-05,0.00010904421651503071,-9.104554919758812e-06,0.0002011206524912268,-0.002509690122678876,-9.817581176757812,0,0,25.402690887451172,1,1,1000,1000,1768451515.180375,4.479874
IMU,6225009,1,2.4153938284143806e-05,0.00023173517547547817,7.909803571237717e-06,0.0006934640114195645,-0.0005858105141669512,-9.817094802856445,0,0,25.402690887451172,1,1,760,799,1768451515.180375,4.479874
IMU,6245001,0,6.206602847669274e-05,3.474521145108156e-05,8.145692117977887e-05,-0.0012948407093062997,-0.0011478766100481153,-9.817643165588379,0,0,25.40399742126465,1,1,1000,1000,1768451515.2003672,4.499866
IMU,6245001,1,0.00014815546455793083,2.310208583367057e-05,0.00017073648632504046,-0.0017404549289494753,-0.0010799119481816888,-9.820239067077637,0,0,25.40399742126465,1,1,760,799,1768451515.2003672,4.499866
IMU,6264993,1,0.0002802488743327558,-4.64722397737205e-05,0.00014312498387880623,0.001116744359023869,0.0008371947915293276,-9.818121910095215,0,0,25.405237197875977,1,1,760,799,1768451515.220359,4.519858
IMU,6264993,0,0.00010275676322635263,9.236193000106141e-05,9.66266670729965e-05,-0.001105238450691104,-0.001071073696948588,-9.818132400512695,0,0,25.405237197875977,1,1,1000,1000,1768451515.220359,4.519858
IMU,6284985,1,8.475007052766159e-05,9.319027412857395e-06,0.00012955462443642318,-0.0027173960115760565,-0.0002276351151522249,-9.816272735595703,0,0,25.406543731689453,1,1,760,799,1768451515.2403512,4.53985
IMU,6284985,0,0.00016986587434075773,-4.31920261689811e-06,8.267002704087645e-05,-0.0008875455241650343,-0.0024528028443455696,-9.817737579345703,0,0,25.406543731689453,1,1,1000,1000,1768451515.2403512,4.53985
IMU,6304977,1,-1.9076906028203666e-06,0.00014237730647437274,0.00014442915562540293,-0.0018363774288445711,-0.003220150712877512,-9.81910514831543,0,0,25.40785026550293,1,1,760,799,1768451515.260343,4.559842
IMU,6304977,0,0.00012494568363763392,0.00012234668247401714,7.031852146610618e-05,-0.0011986118042841554,-0.0005517862155102193,-9.817302703857422,0,0,25.40785026550293,1,1,1000,1000,1768451515.260343,4.559842
IMU,6324969,1,1.5050374713609926e-05,0.00024822785053402185,0.0002447480510454625,-0.0021581556648015976,-0.0013045362429693341,-9.81747817993164,0,0,25.409156799316406,1,1,760,799,1768451515.2803352,4.579834
IMU,6324969,0,0.0001452779397368431,9.855204552877694e-05,7.767856732243672e-05,-0.001392851467244327,-0.0007403057534247637,-9.817617416381836,0,0,25.409156799316406,1,1,1000,1000,1768451515.2803352,4.579834
IMU,6344961,1,-4.423627251526341e-05,-0.00018403599096927792,0.00036634408752433956,-0.001359445508569479,-0.003192397765815258,-9.818368911743164,0,0,25.410463333129883,1,1,760,799,1768451515.300327,4.599826
IMU,6344961,0,9.361658885609359e-05,6.970057438593358e-05,5.2951429097447544e-05,-0.001397731713950634,-0.0010418171295896173,-9.817194938659668,0,0,25.410463333129883,1,1,1000,1000,1768451515.300327,4.599826
IMU,6364953,1,0.00026477326173335314,0.0001608761231182143,-0.00012534917914308608,-0.0014128114562481642,-0.003771047806367278,-9.818709373474121,0,0,25.41176986694336,1,1,760,799,1768451515.3203192,4.619818
IMU,6364953,0,6.604610825888813e-05,5.081436756881885e-05,8.577237895224243e-05,-0.00012840617273468524,-0.001233409740962088,-9.817670822143555,0,0,25.41176986694336,1,1,1000,1000,1768451515.3203192,4.619818
IMU,6384945,1,-5.4807827837066725e-05,0.00029199852724559605,7.962256495375186e-05,-0.0013173826737329364,-0.0028725299052894115,-9.819090843200684,0,0,25.413074493408203,1,1,760,799,1768451515.340311,4.63981
IMU,6384945,0,0.00010742268932517618,4.9197962653124705e-05,0.00012164267536718398,-2.105220119119622e-06,-0.0014643280301243067,-9.817888259887695,0,0,25.413074493408203,1,1,1000,1000,1768451515.340311,4.63981
IMU,6404937,1,-0.00011205809278180823,0.00016953973681665957,-0.00012937540304847062,-0.0004057132173329592,-0.00221615144982934,-9.817451477050781,0,0,25.414379119873047,1,1,760,799,1768451515.3603032,4.659802
IMU,6404937,0,0.00010619324166327715,0.00016425341891590506,6.081075844122097e-05,-0.000139243682497181,-0.001087823649868369,-9.817544937133789,0,0,25.414379119873047,1,1,1000,1000,1768451515.3603032,4.659802
IMU,6424929,1,-9.480003791395575e-05,-3.300449316157028e-05,-7.283955346792936e-05,-0.0018553566187620163,-0.0013908720575273037,-9.818942070007324,0,0,25.415685653686523,1,1,760,799,1768451515.380295,4.679794
IMU,6424929,0,0.00012757067452184856,0.00010000885959016159,6.964286149013788e-05,-0.0011539490660652518,-0.0012115517165511847,-9.81756591796875,0,0,25.415685653686523,1,1,1000,1000,1768451515.380295,4.679794
IMU,6444921,1,0.00018116229330189526,4.174547575530596e-05,4.260540663381107e-06,-0.0012459568679332733,-0.002780280774459243,-9.817828178405762,0,0,25.4169921875,1,1,760,799,1768451515.4002872,4.699786
IMU,6444921,0,7.061756332404912e-05,4.424761209520511e-05,0.00019616051577031612,-0.0007932381122373044,-0.0005065888399258256,-9.817975997924805,0,0,25.4169921875,1,1,1000,1000,1768451515.4002872,4.699786
IMU,6464913,1,2.162717646569945e-05,0.0001673092192504555,-0.00011411626474000514,0.00024242125800810754,-0.0008751333225518465,-9.816285133361816,0,0,25.418296813964844,1,1,760,799,1768451515.420279,4.719778
IMU,6464913,0,4.672874274547212e-05,7.031043787719682e-05,0.00016514446178916842,-0.000715804984793067,-0.0005992393707856536,-9.817655563354492,0,0,25.418296813964844,1,1,1000,1000,1768451515.420279,4.719778
IMU,6484905,1,-5.457631414174102e-05,0.0002671195543371141,-5.9979902289342135e-05,0.0007032881258055568,0.0015842504799365997,-9.814353942871094,0,0,25.419601440429688,1,1,760,799,1768451515.4402711,4.73977
IMU,6484905,0,0.00015515153063461185,0.00013807864161208272,0.0001233067159773782,-0.001594377332367003,2.0611227228073403e-05,-9.816970825195312,0,0,25.419601440429688,1,1,1000,1000,1768451515.4402711,4.73977
IMU,6504897,1,5.500601037056185e-05,-0.00014237980940379202,0.00011497864034026861,-6.77273201290518e-05,-0.0030377560760825872,-9.815133094787598,0,0,25.420907974243164,1,1,760,799,1768451515.4602633,4.759762
IMU,6504897,0,0.00015959597658365965,3.986149749835022e-05,0.00015152152627706528,-0.001573078567162156,-0.0005967154284007847,-9.816521644592285,0,0,25.420907974243164,1,1,1000,1000,1768451515.4602633,4.759762
IMU,6524889,1,4.712261579697952e-05,4.86288481624797e-05,1.0273910447722301e-05,-0.002446696162223816,-0.0019117568153887987,-9.818511962890625,0,0,25.422212600708008,1,1,760,799,1768451515.4802551,4.779754
IMU,6524889,0,0.0001076687840395607,0.00010111406299984083,-9.454898645344656e-06,-0.00026649265782907605,-0.0006770604522898793,-9.817612648010254,0,0,25.422212600708008,1,1,1000,1000,1768451515.4802551,4.779754
IMU,6544881,1,0.00012822530698031187,0.00018358317902311683,4.6447468776023015e-05,-0.00258325575850904,-0.00280554941855371,-9.818388938903809,0,0,25.423519134521484,1,1,760,799,1768451515.5002472,4.799746
IMU,6544881,0,1.1137307410535868e-05,8.974436786957085e-05,6.503117037937045e-05,-0.0009884773753583431,-0.0016584679251536727,-9.817889213562012,0,0,25.423519134521484,1,1,1000,1000,1768451515.5002472,4.799746
IMU,6564873,1,0.0001638895191717893,0.00012228758714627475,0.000218194501940161,-0.0005399021320044994,-0.0016385844210162759,-9.816776275634766,0,0,25.424823760986328,1,1,760,799,1768451515.520239,4.819738
IMU,6564873,0,0.0001236422103829682,0.0001392095146002248,6.592148565687239e-05,-0.0018461133586242795,-0.0002209759841207415,-9.817237854003906,0,0,25.424823760986328,1,1,1000,1000,1768451515.520239,4.819738
IMU,6584865,0,0.00010979093349305913,6.330909673124552e-05,7.435942825395614e-05,-0.001846140599809587,-1.2022475857520476e-05,-9.817619323730469,0,0,25.426128387451172,1,1,1000,1000,1768451515.5402312,4.83973
IMU,6584865,1,-4.713881207862869e-05,5.2611969294957817e-05,7.136863860068843e-05,0.0003272869507782161,-0.002157375682145357,-9.816056251525879,0,0,25.426128387451172,1,1,760,799,1768451515.5402312,4.83973
IMU,6604857,0,6.738165393471718e-05,6.748181476723403e-05,9.00611121323891e-05,-0.001497607328929007,-9.046428021974862e-05,-9.817327499389648,0,0,25.427433013916016,1,1,1000,1000,1768451515.560223,4.859722
IMU,6604857,1,5.795789911644533e-05,7.595700299134478e-05,0.0001318690337939188,-5.177258572075516e-06,1.1697600712068379e-05,-9.817476272583008,0,0,25.427433013916016,1,1,760,799,1768451515.560223,4.859722
IMU,6624849,0,7.932590960990638e-05,0.00010206314618699253,6.414484232664108e-05,-0.0004904713132418692,-0.001064540701918304,-9.818154335021973,0,0,25.42873764038086,1,1,1000,1000,1768451515.5802152,4.879714
IMU,6624849,1,3.587764877011068e-05,9.043855970958248e-05,0.00010310231300536543,0.000653137918561697,0.0012135138968005776,-9.819116592407227,0,0,25.42873764038086,1,1,760,799,1768451515.5802152,4.879714
IMU,6644841,0,0.00012818281538784504,7.249777991091833e-05,0.00011523218563525006,-0.0007248228066600859,-0.0012514358386397362,-9.817479133605957,0,0,25.430042266845703,1,1,1000,1000,1768451515.600207,4.899706
IMU,6644841,1,8.168066415237263e-05,0.00010301060683559626,1.050885475706309e-05,-0.002292708959430456,3.085663774982095e-05,-9.817487716674805,0,0,25.430042266845703,1,1,760,799,1768451515.600207,4.899706
IMU,6664833,0,8.234003325924277e-05,5.4184627515496686e-05,3.940848182537593e-05,-0.0008467279840260744,-0.000356799631845206,-9.816839218139648,0,0,25.431346893310547,1,1,1000,1000,1768451515.6201992,4.919698
IMU,6664833,1,6.91865716362372e-06,0.00021634720906149596,2.865508122340543e-06,-0.00047969265142455697,-0.0010464935330674052,-9.817277908325195,0,0,25.431346893310547,1,1,760,799,1768451515.6201992,4.919698
IMU,6684825,0,0.00012516972492448986,6.842010043328628e-05,2.062808744085487e-05,-0.0013787540374323726,0.0003250605659559369,-9.815044403076172,0,0,25.43265151977539,1,1,1000,1000,1768451515.640191,4.93969
IMU,6684825,1,0.00011294466094113886,0.00013722319272346795,8.849348523654044e-05,-0.0029819419141858816,-0.000925020722206682,-9.815738677978516,0,0,25.43265151977539,1,1,760,799,1768451515.640191,4.93969
IMU,6704817,0,0.00013910001143813133,0.0001022527867462486,0.00010392200783826411,0.0008577517000958323,-0.000691849971190095,-9.816505432128906,0,0,25.433956146240234,1,1,1000,1000,1768451515.6601832,4.959682
IMU,6704817,1,1.178280399471987e-05,0.00029187698964960873,0.00010222791752312332,-0.0043229516595602036,-0.00010157785436604172,-9.815547943115234,0,0,25.433956146240234,1,1,760,799,1768451515.6601832,4.959682
IMU,6724809,0,7.023930083960295e-05,2.1662159269908443e-05,5.638128277496435e-05,0.00019717373652383685,-0.0018424090230837464,-9.816985130310059,0,0,25.435260772705078,1,1,1000,1000,1768451515.680175,4.979674
IMU,6724809,1,-4.531597733148374e-05,-2.6382429496152326e-05,-0.00020459896768443286,-0.0005019289092160761,-0.0006766539881937206,-9.818236351013184,0,0,25.435260772705078,1,1,760,799,1768451515.680175,4.979674
IMU,6744801,0,0.00014029804151505232,0.00010609941091388464,6.732426845701411e-05,-0.0010108521673828363,-0.0005215234123170376,-9.817809104919434,0,0,25.436565399169922,1,1,1000,1000,1768451515.7001672,4.999666
IMU,6744801,1,-0.00010713905794546008,6.70579174766317e-05,2.396059971943032e-05,-0.0017702925251796842,0.0005842065438628197,-9.81800365447998,0,0,25.436565399169922,1,1,760,799,1768451515.7001672,4.999666
IMU,6764793,0,0.00012335162318777293,9.871061774902046e-05,7.635805377503857e-05,-0.0016358152497559786,-0.0013001342304050922,-9.816924095153809,0,0,25.437868118286133,1,1,1000,1000,1768451515.720159,5.019658
IMU,6764793,1,0.00014932466729078442,0.00027288400451652706,0.00023902964312583208,-0.0017963325371965766,-0.0001355127023998648,-9.819254875183105,0,0,25.437868118286133,1,1,760,799,1768451515.720159,5.019658
IMU,6784785,0,2.7418125682743266e-05,0.00012031881487928331,2.7305657567922026e-05,-0.0001357067667413503,-0.0008178114658221602,-9.81791877746582,0,0,25.439172744750977,1,1,1000,1000,1768451515.7401512,5.03965
IMU,6784785,1,0.00010255766392219812,-9.72984271356836e-05,0.00010419032332720235,0.00010922513320110738,-0.0023662340827286243,-9.816675186157227,0,0,25.439172744750977,1,1,760,799,1768451515.7401512,5.03965
IMU,6804777,1,0.00012564787175506353,3.3937649277504534e-05,6.909949297551066e-05,-0.0025186112616211176,-0.0009780600666999817,-9.817728042602539,0,0,25.44047737121582,1,1,760,799,1768451515.760143,5.059642
IMU,6804777,0,7.475522579625249e-05,8.136359974741936e-05,0.00013461735215969384,-0.0015970037784427404,-0.001076777232810855,-9.816967964172363,0,0,25.44047737121582,1,1,1000,1000,1768451515.760143,5.059642
IMU,6824769,1,9.153493010671809e-05,3.6347795685287565e-05,0.00013645530270878226,-0.0029015415348112583,-0.0036262276116758585,-9.817137718200684,0,0,25.441781997680664,1,1,760,799,1768451515.7801352,5.079634
IMU,6824769,0,0.00012823542056139559,0.00015094259288161993,7.4895637226291e-05,-0.002259574830532074,-0.0009225200628861785,-9.818052291870117,0,0,25.441781997680664,1,1,1000,1000,1768451515.7801352,5.079634
IMU,6844761,1,0.00010955674952128902,8.124529995257035e-05,0.00024259768542833626,0.0007171028410084546,-0.002231876365840435,-9.816729545593262,0,0,25.443084716796875,1,1,760,799,1768451515.800127,5.099626
IMU,6844761,0,0.00015726473066024482,0.00017282532644458115,0.00011581604485400021,-0.0007958623464219272,-0.0007652215426787734,-9.81792163848877,0,0,25.443084716796875,1,1,1000,1000,1768451515.800127,5.099626
IMU,6864753,0,2.6233085009153e-05,4.2523181036813185e-05,5.935881199548021e-05,-0.001398849068209529,-0.0017533693462610245,-9.818784713745117,0,0,25.44438934326172,1,1,1000,1000,1768451515.8201191,5.119618
IMU,6864753,1,7.897844625404105e-05,0.0003509874804876745,0.0003437700215727091,-0.0014388312119990587,0.002206459641456604,-9.818378448486328,0,0,25.44438934326172,1,1,760,799,1768451515.8201191,5.119618
IMU,6884745,1,0.00018993632693309337,0.0002796381595544517,-8.143190643750131e-05,-0.0042121997103095055,-0.0019044834189116955,-9.815691947937012,0,0,25.44569206237793,1,1,760,799,1768451515.840111,5.13961
IMU,6884745,0,0.00020669179502874613,6.285540439421311e-05,0.00014650591765530407,-0.0014782145153731108,4.868425821769051e-05,-9.818005561828613,0,0,25.44569206237793,1,1,1000,1000,1768451515.840111,5.13961
IMU,6904737,0,7.477099279640242e-05,9.2778165708296e-05,8.033293852349743e-05,-0.0015042343875393271,-0.0018525171326473355,-9.817499160766602,0,0,25.44699478149414,1,1,1000,1000,1768451515.8601031,5.159602
IMU,6904737,1,0.0001270718057639897,0.0002738206530921161,0.0001699053100310266,-0.00048023328417912126,-0.0005833294708281755,-9.816975593566895,0,0,25.44699478149414,1,1,760,799,1768451515.8601031,5.159602
IMU,6924729,0,6.394970114342868e-05,0.0001010088381008245,7.231471681734547e-05,-0.0013284571468830109,-0.0008266873192042112,-9.817329406738281,0,0,25.448299407958984,1,1,1000,1000,1768451515.8800952,5.179594
IMU,6924729,1,5.432610851130448e-05,0.0001690728240646422,0.00018992481636814773,0.001510797068476677,-0.001812722417525947,-9.816373825073242,0,0,25.448299407958984,1,1,760,799,1768451515.8800952,5.179594
IMU,6944721,0,3.5271106753498316e-05,0.0001251863723155111,0.00011365947284502909,-0.0018791493494063616,-0.001970523502677679,-9.817683219909668,0,0,25.449602127075195,1,1,1000,1000,1768451515.900087,5.199586
IMU,6944721,1,0.00018100655870512128,6.134004797786474e-05,0.00018396743689663708,-2.4613909772597253e-05,-0.0024489336647093296,-9.818009376525879,0,0,25.449602127075195,1,1,760,799,1768451515.900087,5.199586
IMU,6964713,1,0.00026339839678257704,-9.047895582625642e-05,0.00016703955770935863,-0.0022579836659133434,-0.0024248147383332253,-9.813492774963379,0,0,25.450904846191406,1,1,760,799,1768451515.9200792,5.219578
IMU,6964713,0,7.82013958087191e-05,0.0001821333571569994,0.00013866891094949096,-0.001791335758753121,-0.0004399934259708971,-9.817234992980957,0,0,25.450904846191406,1,1,1000,1000,1768451515.9200792,5.219578
IMU,6984705,0,4.942432860843837e-05,8.071013871813193e-05,0.00011067723971791565,-0.0007345995982177556,-0.0011249958770349622,-9.81734561920166,0,0,25.45220947265625,1,1,1000,1000,1768451515.940071,5.23957
IMU,6984705,1,0.00010333287355024368,7.872407149989158e-05,0.00015621674538124353,-0.001723210560157895,-0.0009812823263928294,-9.816872596740723,0,0,25.45220947265625,1,1,760,799,1768451515.940071,5.23957
IMU,7004697,1,0.000137299342895858,-4.365984204923734e-05,0.00012405699817463756,0.0010086119873449206,-0.0003836952964775264,-9.81580638885498,0,0,25.45351219177246,1,1,760,799,1768451515.9600632,5.259562
IMU,7004697,0,6.356876838253811e-05,0.00012140476610511541,0.00014109259063843638,0.0002747248800005764,-0.002128931228071451,-9.81802749633789,0,0,25.45351219177246,1,1,1000,1000,1768451515.9600632,5.259562
IMU,7024689,1,-0.0002809232973959297,-5.876667637494393e-05,0.000176274188561365,0.0010222429409623146,-0.001668828772380948,-9.818561553955078,0,0,25.454814910888672,1,1,760,799,1768451515.980055,5.279554
IMU,7024689,0,0.00015892187366262078,0.00012846064055338502,9.540512110106647e-05,-0.0010783137986436486,-0.0006272017490118742,-9.817177772521973,0,0,25.454814910888672,1,1,1000,1000,1768451515.980055,5.279554
IMU,7044681,0,0.00010393594129709527,3.105869109276682e-05,0.00016490506823174655,-0.0004976566415280104,-0.001893705572001636,-9.818073272705078,0,0,25.456119537353516,1,1,1000,1000,1768451516.0000472,5.299546
IMU,7044681,1,-1.0826818197529064e-06,0.00011907717271242291,9.406668687006459e-05,0.0016862525371834636,-0.0013819769956171513,-9.820257186889648,0,0,25.456119537353516,1,1,760,799,1768451516.0000472,5.299546
IMU,7064673,0,0.0001633910578675568,6.76211275276728e-05,0.00011279618775006384,-0.00018881123105529696,-0.0012498116120696068,-9.81774616241455,0,0,25.457422256469727,1,1,1000,1000,1768451516.020039,5.319538
IMU,7064673,1,5.078977847006172e-05,0.00029617533436976373,-0.000131807173602283,-0.0007749926298856735,-0.0018115239217877388,-9.818991661071777,0,0,25.457422256469727,1,1,760,799,1768451516.020039,5.319538
IMU,7084665,0,0.0001247791515197605,9.69943284871988e-05,0.00012131286348449066,-0.000506553624290973,-0.0012670019641518593,-9.817298889160156,0,0,25.458724975585938,1,1,1000,1000,1768451516.0400312,5.33953
IMU,7084665,1,-6.261943781282753e-05,-0.0001893782027764246,0.0001637871318962425,0.0008629719377495348,-1.7611193470656872e-05,-9.819011688232422,0,0,25.458724975585938,1,1,760,799,1768451516.0400312,5.33953
IMU,7104657,0,0.0001317887508776039,0.00015466396871488541,0.00015221134526655078,-0.0007871515117585659,0.0006443678867071867,-9.817688941955566,0,0,25.46002769470215,1,1,1000,1000,1768451516.060023,5.359522
IMU,7104657,1,0.00010610064782667905,0.0002582556917332113,0.0001477892219554633,-8.673304546391591e-05,0.00023272421094588935,-9.819845199584961,0,0,25.46002769470215,1,1,760,799,1768451516.060023,5.359522
IMU,7124649,0,0.00011142135917907581,0.0001565264683449641,7.074281165841967e-05,-0.0010763050522655249,-0.0011261493200436234,-9.817785263061523,0,0,25.461328506469727,1,1,1000,1000,1768451516.0800152,5.379514
IMU,7124649,1,0.00020812528964597732,7.882454519858584e-05,0.00012354976206552237,-0.0018530868692323565,-0.0010606213472783566,-9.819212913513184,0,0,25.461328506469727,1,1,760,799,1768451516.0800152,5.379514
IMU,7144641,0,9.417459659744054e-05,0.0001059155838447623,7.530794391641393e-05,-0.0014344287337735295,-0.000906854635104537,-9.817743301391602,0,0,25.462631225585938,1,1,999,999,1768451516.100007,5.399506
IMU,7144641,1,0.00031178598874248564,0.00021128696971572936,0.0002296984166605398,-0.004079741425812244,0.0003050273808185011,-9.816524505615234,0,0,25.462631225585938,1,1,760,799,1768451516.100007,5.399506
IMU,7164633,0,0.0001825774525059387,2.848847725545056e-05,9.71786939771846e-05,-0.00152615609113127,-0.0015061120502650738,-9.816577911376953,0,0,25.46393394470215,1,1,999,999,1768451516.1199992,5.419498
IMU,7164633,1,0.0001583994016982615,8.114251249935478e-05,9.183947258861735e-05,-0.0005642889300361276,-0.0022085641976445913,-9.818596839904785,0,0,25.46393394470215,1,1,760,799,1768451516.1199992,5.419498
IMU,7184625,0,8.498349052388221e-05,7.411022670567036e-05,0.0001202988569275476,-0.001230696914717555,-0.000840631895698607,-9.818568229675293,0,0,25.46523666381836,1,1,999,999,1768451516.139991,5.43949
IMU,7184625,1,0.00030963410972617567,-4.699310375144705e-05,-0.0002158706629415974,0.0016969663556665182,-0.0004777395515702665,-9.81836986541748,0,0,25.46523666381836,1,1,760,799,1768451516.139991,5.43949
IMU,7204617,0,5.231906834524125e-05,6.843339360784739e-05,7.695084059378132e-05,-0.0007776087149977684,-0.0004998535150662065,-9.818366050720215,0,0,25.46653938293457,1,1,999,999,1768451516.1599832,5.459482
IMU,7204617,1,0.00016287389735225588,-1.423492267349502e-05,0.00022305917809717357,-0.0012850301573053002,-0.0019861734472215176,-9.8172607421875,0,0,25.46653938293457,1,1,760,799,1768451516.1599832,5.459482
IMU,7224609,0,5.112919825478457e-05,8.78334540175274e-05,5.637437061523087e-05,-0.0006783202989026904,-0.0015233043814077973,-9.817659378051758,0,0,25.46784210205078,1,1,999,999,1768451516.179975,5.479474
IMU,7224609,1,1.6569727449677885e-05,1.2359951142570935e-06,0.0001755153207341209,-0.000991641078144312,-0.0014023182447999716,-9.816990852355957,0,0,25.46784210205078,1,1,760,799,1768451516.179975,5.479474
IMU,7244601,0,0.0001453216391382739,0.00012186213280074298,0.00013873241550754756,-0.0015561517793685198,-0.0011201670859009027,-9.817144393920898,0,0,25.46914291381836,1,1,999,999,1768451516.1999671,5.499466
IMU,7244601,1,5.5830565543146804e-05,0.0002718017203733325,0.0001376243744743988,0.0021656786557286978,-0.0016848642844706774,-9.818849563598633,0,0,25.46914291381836,1,1,760,799,1768451516.1999671,5.499466
IMU,7264593,0,2.532079270167742e-05,0.00016687062452547252,0.00013892738206777722,-0.0004555842315312475,-0.0008868942968547344,-9.816987991333008,0,0,25.47044563293457,1,1,999,999,1768451516.219959,5.519458
IMU,7264593,1,-6.517813017126173e-05,0.0002759781782515347,2.2484284272650257e-05,-0.0004759067087434232,-0.00024085058248601854,-9.821405410766602,0,0,25.47044563293457,1,1,760,799,1768451516.219959,5.519458
IMU,7284585,0,5.676562795997597e-05,0.0001449693663744256,1.2943446563440375e-05,-0.0013608409790322185,-0.001019362243823707,-9.817033767700195,0,0,25.47174644470215,1,1,999,999,1768451516.2399511,5.53945
IMU,7284585,1,0.0001300707517657429,-7.365602505160496e-05,0.0002471869520377368,0.0009891442023217678,-0.0015066997148096561,-9.818013191223145,0,0,25.47174644470215,1,1,760,799,1768451516.2399511,5.53945
IMU,7304577,0,9.100944589590654e-05,0.00010649745672708377,7.478894985979423e-05,-0.0014051422476768494,-0.00048217782750725746,-9.817778587341309,0,0,25.47304916381836,1,1,999,999,1768451516.2599432,5.559442
IMU,7304577,1,0.00026204303139820695,9.457010310143232e-05,-1.8517483113100752e-05,-0.001334201660938561,-0.0012915660627186298,-9.816617965698242,0,0,25.47304916381836,1,1,760,799,1768451516.2599432,5.559442
IMU,7324569,0,0.0001442331267753616,0.00013270991621538997,6.607577233808115e-05,-0.0014521169941872358,-0.0006836018292233348,-9.81663703918457,0,0,25.474349975585938,1,1,999,999,1768451516.2799351,5.579434
IMU,7324569,1,0.00018751794414129108,-2.03312356461538e-05,0.00015669892309233546,-0.0025323235895484686,-0.0009181208442896605,-9.8192138671875,0,0,25.474349975585938,1,1,760,799,1768451516.2799351,5.579434
IMU,7344561,0,9.957788279280066e-05,8.557526598451659e-05,0.00017232800018973649,-0.0009474724065512419,-0.00022509231348522007,-9.817486763000488,0,0,25.47565269470215,1,1,999,999,1768451516.2999272,5.599426
IMU,7344561,1,0.0003476821875665337,2.6241643354296684e-05,0.0002544088347349316,0.00023201925796456635,-0.0009779207175597548,-9.817933082580566,0,0,25.47565269470215,1,1,760,799,1768451516.2999272,5.599426
IMU,7364553,0,0.00011688892845995724,0.0001090842270059511,0.00014613554230891168,-0.00047048344276845455,-0.0014743092469871044,-9.818395614624023,0,0,25.476953506469727,1,1,999,999,1768451516.319919,5.619418
IMU,7364553,1,-0.00010426142398500815,5.3903113439446315e-05,-4.161546712566633e-06,-0.0004025209927931428,-0.0009698747890070081,-9.816634178161621,0,0,25.476953506469727,1,1,760,799,1768451516.319919,5.619418
IMU,7384545,0,9.109953680308536e-05,0.00011055529466830194,0.00011448649456724524,-0.0015448066405951977,-0.0013597041834145784,-9.816750526428223,0,0,25.478256225585938,1,1,999,999,1768451516.3399112,5.63941
IMU,7384545,1,0.0001300355070270598,5.8772846387000754e-05,0.0002532213111408055,0.00193195347674191,-0.0031039142049849033,-9.814273834228516,0,0,25.478256225585938,1,1,760,799,1768451516.3399112,5.63941
IMU,7404537,0,0.00014061928959563375,5.5539778259117156e-05,0.00013245592708699405,-0.000507313059642911,-0.0009153592982329428,-9.816681861877441,0,0,25.479557037353516,1,1,999,999,1768451516.359903,5.659402
IMU,7404537,1,-5.018980118620675e-06,-8.270783291663975e-05,5.874051930732094e-05,-0.0012683975510299206,0.000312130810925737,-9.818429946899414,0,0,25.479557037353516,1,1,760,799,1768451516.359903,5.659402
IMU,7424529,1,0.00010836900037247688,0.00019213724590372294,-0.00020190638315398246,-0.0007832979899831116,-0.0012022810988128185,-9.81911849975586,0,0,25.480792999267578,1,1,760,799,1768451516.3798952,5.679394
IMU,7424529,0,0.00010995421325787902,0.0001264768943656236,0.0001035253080772236,-0.0006449704524129629,-0.00016125355614349246,-9.816328048706055,0,0,25.480857849121094,1,1,999,999,1768451516.3798952,5.679394
IMU,7444521,1,6.920876330696046e-06,0.00023542274720966816,2.7102092644781806e-05,-0.002957650925964117,-0.0031997631303966045,-9.818324089050293,0,0,25.482093811035156,1,1,760,799,1768451516.399887,5.699386
IMU,7444521,0,0.00011553707008715719,0.00011714421270880848,8.886705472832546e-05,-0.0010502104414626956,-0.0008368619601242244,-9.818197250366211,0,0,25.482160568237305,1,1,999,999,1768451516.399887,5.699386
IMU,7464513,1,-9.999789472203702e-05,-0.00014188433124218136,0.00010777213901747018,-0.00030120956944301724,-0.0010330543154850602,-9.820001602172852,0,0,25.483396530151367,1,1,760,799,1768451516.4198792,5.719378
IMU,7464513,0,0.00018286873819306493,0.00017541540728416294,0.00010564328113105148,-0.0007644081488251686,-0.001456278609111905,-9.818387985229492,0,0,25.48345947265625,1,1,999,999,1768451516.4198792,5.719378
IMU,7484505,1,0.0003818058758042753,0.00026199338026344776,0.00016474304720759392,0.0019846251234412193,-0.002996038645505905,-9.81672477722168,0,0,25.484697341918945,1,1,760,799,1768451516.439871,5.73937
IMU,7484505,0,0.00011190021177753806,0.00018776566139422357,0.00016363730537705123,-0.0008721209014765918,-0.0009671266889199615,-9.817449569702148,0,0,25.48476219177246,1,1,999,999,1768451516.439871,5.73937
IMU,7504497,1,0.0003590166743379086,0.00031935772858560085,7.92097271187231e-05,0.0012227019760757685,-0.002977509517222643,-9.817138671875,0,0,25.48599624633789,1,1,760,799,1768451516.4598632,5.759362
