mavpackettype_imu,TimeUS_imu,I,GyrX,GyrY,GyrZ,AccX,AccY,AccZ,EG,EA,T,GH,AH,GHz,AHz,_t_imu,t_imu,t_s,mavpackettype_rcou,TimeUS_rcou,C1,C2,C3,C4,C5,C6,C7,C8,C9,C10,C11,C12,C13,C14,_t_rcou,t_rcou
IMU,1745135,0,3.5089922221231973e-06,3.0766796044190414e-06,-2.952220711449627e-05,-0.06385264545679092,-0.05386681109666824,-9.817510604858398,0,0,25.10777473449707,1,1,999,999,1768451510.7005012,0.0,0.0,RCOU,1745135,1500,1500,1000,1500,0,0,0,0,0,0,0,0,0,0,1768451510.7005012,0.0
IMU,1765127,1,-3.828822082141414e-05,0.00010524473327677697,-0.000320178281981498,0.7774060964584351,-0.029300086200237274,-9.818117141723633,0,0,25.109167098999023,1,1,760,799,1768451510.720493,0.019992,0.019992,RCOU,1745135,1500,1500,1000,1500,0,0,0,0,0,0,0,0,0,0,1768451510.7005012,0.0
IMU,1785119,1,-3.8903985114302486e-05,-4.075473407283425e-05,-1.4710847608512267e-05,2.186619758605957,0.04003431275486946,-9.816665649414062,0,0,25.11049461364746,1,1,760,799,1768451510.7404852,0.039984,0.039984,RCOU,1785119,1500,1500,1000,1500,0,0,0,0,0,0,0,0,0,0,1768451510.7404852,0.039984
IMU,1805111,1,0.0001467681140638888,-0.00020980805857107043,9.237124322680756e-05,3.1454410552978516,-0.014566907659173012,-9.815343856811523,0,0,25.111820220947266,1,1,760,799,1768451510.760477,0.059976,0.059975999999999995,RCOU,1785119,1500,1500,1000,1500,0,0,0,0,0,0,0,0,0,0,1768451510.7404852,0.039984
IMU,1825103,1,0.0002884084533434361,0.00027954080724157393,-2.776059955067467e-05,3.5545196533203125,0.005012971814721823,-9.835336685180664,0,0,25.11314582824707,1,1,760,799,1768451510.7804692,0.079968,0.079968,RCOU,1825103,1500,1500,1000,1500,0,0,0,0,0,0,0,0,0,0,1768451510.7804692,0.079968
IMU,1845095,0,-2.6372446882305667e-05,5.93639379076194e-05,-0.0001074144383892417,3.6198909282684326,0.07145768404006958,-9.83626937866211,0,0,25.114471435546875,1,1,999,999,1768451510.800461,0.09996,0.09996,RCOU,1825103,1500,1500,1000,1500,0,0,0,0,0,0,0,0,0,0,1768451510.7804692,0.079968
IMU,1865087,0,7.464217924280092e-05,-5.160777072887868e-05,-8.201056334655732e-05,3.371587038040161,-0.06608910858631134,-9.829986572265625,0,0,25.11579704284668,1,1,999,999,1768451510.8204532,0.119952,0.11995199999999999,RCOU,1865087,1500,1500,1000,1500,0,0,0,0,0,0,0,0,0,0,1768451510.8204532,0.119952
IMU,1885079,1,1.7972330169868656e-05,9.100216266233474e-05,-0.00025713100330904126,2.966171979904175,0.0036979566793888807,-9.824322700500488,0,0,25.117122650146484,1,1,760,799,1768451510.840445,0.139944,0.13994399999999999,RCOU,1865087,1500,1500,1000,1500,0,0,0,0,0,0,0,0,0,0,1768451510.8204532,0.119952
IMU,1905071,0,3.9927995203470346e-06,2.3089416572474875e-05,-5.635363049805164e-05,2.4294381141662598,-0.006646804977208376,-9.822895050048828,0,0,25.11844825744629,1,1,999,999,1768451510.8604372,0.159936,0.159936,RCOU,1905071,1500,1500,1000,1500,0,0,0,0,0,0,0,0,0,0,1768451510.8604372,0.159936
IMU,1925063,0,0.00011937026283703744,-3.2457792258355767e-05,-3.5766701330430806e-05,1.8032867908477783,-0.013515460304915905,-9.819557189941406,0,0,25.119773864746094,1,1,999,999,1768451510.880429,0.179928,0.179928,RCOU,1945055,1500,1500,1000,1500,0,0,0,0,0,0,0,0,0,0,1768451510.9004211,0.19992
IMU,1945055,0,9.081688767764717e-05,1.7302127162110992e-05,-3.341978299431503e-05,1.10636305809021,-0.00914742797613144,-9.817574501037598,0,0,25.1210994720459,1,1,999,999,1768451510.9004211,0.19992,0.19992,RCOU,1945055,1500,1500,1000,1500,0,0,0,0,0,0,0,0,0,0,1768451510.9004211,0.19992
IMU,1965047,0,-1.4376165381690953e-05,3.9214333810377866e-05,-2.0811890863114968e-05,0.4884055256843567,0.011441558599472046,-9.814430236816406,0,0,25.122425079345703,1,1,999,999,1768451510.920413,0.219912,0.219912,RCOU,1985039,1500,1500,1000,1500,0,0,0,0,0,0,0,0,0,0,1768451510.9404051,0.239904
IMU,1985039,0,4.5645690988749266e-05,0.0001024753728415817,-2.8025182473356836e-05,-0.11570222675800323,-0.021094337105751038,-9.812808990478516,0,0,25.123748779296875,1,1,999,999,1768451510.9404051,0.239904,0.23990399999999998,RCOU,1985039,1500,1500,1000,1500,0,0,0,0,0,0,0,0,0,0,1768451510.9404051,0.239904
IMU,2005031,0,5.149253047420643e-05,5.8655925386119634e-05,8.456591785943601e-06,-0.6469614505767822,-0.001994484104216099,-9.811361312866211,0,0,25.12507438659668,1,1,999,999,1768451510.9603972,0.259896,0.259896,RCOU,2025023,1500,1500,1000,1500,0,0,0,0,0,0,0,0,0,0,1768451510.980389,0.279888
IMU,2025023,0,-6.017412943037925e-06,2.8959348128410056e-05,-2.7558371584746055e-05,-1.0985231399536133,0.003005641745403409,-9.810428619384766,0,0,25.12639808654785,1,1,999,999,1768451510.980389,0.279888,0.27988799999999997,RCOU,2025023,1500,1500,1000,1500,0,0,0,0,0,0,0,0,0,0,1768451510.980389,0.279888
IMU,2045015,0,-8.028435331652872e-06,6.38767596683465e-05,7.36662550480105e-05,-1.4831808805465698,-0.0030471025966107845,-9.809833526611328,0,0,25.127723693847656,1,1,999,999,1768451511.0003812,0.29988,0.29988,RCOU,2025023,1500,1500,1000,1500,0,0,0,0,0,0,0,0,0,0,1768451510.980389,0.279888
IMU,2065007,0,9.155557199846953e-05,2.817628592310939e-05,6.390580529114231e-05,-1.7627127170562744,-0.00010043010115623474,-9.810698509216309,0,0,25.12904930114746,1,1,999,999,1768451511.020373,0.319872,0.319872,RCOU,2065007,1500,1500,1000,1500,0,0,0,0,0,0,0,0,0,0,1768451511.020373,0.319872
IMU,2084999,1,-0.00013140469673089683,0.00010149649460799992,6.516035500681028e-05,-1.9581108093261719,-0.016746090725064278,-9.810707092285156,0,0,25.130306243896484,1,1,760,799,1768451511.0403652,0.339864,0.339864,RCOU,2065007,1500,1500,1000,1500,0,0,0,0,0,0,0,0,0,0,1768451511.020373,0.319872
IMU,2104991,0,2.205927376053296e-05,4.5000513637205586e-05,3.922054384020157e-05,-2.0760722160339355,-0.004116038791835308,-9.811201095581055,0,0,25.13163185119629,1,1,999,999,1768451511.060357,0.359856,0.359856,RCOU,2104991,1500,1500,1000,1500,0,0,0,0,0,0,0,0,0,0,1768451511.060357,0.359856
IMU,2124983,0,-6.97273117111763e-06,1.1223594810871873e-05,8.903841080609709e-05,-2.122241973876953,-0.005475228186696768,-9.811384201049805,0,0,25.132957458496094,1,1,999,999,1768451511.0803492,0.379848,0.37984799999999996,RCOU,2104991,1500,1500,1000,1500,0,0,0,0,0,0,0,0,0,0,1768451511.060357,0.359856
IMU,2144975,0,2.306170244992245e-05,-4.957406781613827e-05,8.670680108480155e-05,-2.095066785812378,-0.002141551813110709,-9.812010765075684,0,0,25.134281158447266,1,1,999,999,1768451511.100341,0.39984,0.39984,RCOU,2144975,1500,1500,1000,1500,0,0,0,0,0,0,0,0,0,0,1768451511.100341,0.39984
IMU,2164967,0,1.4722567357239313e-05,-4.464864559849957e-06,6.33766467217356e-05,-2.017056703567505,-0.003842780366539955,-9.813775062561035,0,0,25.135604858398438,1,1,999,999,1768451511.1203332,0.419832,0.419832,RCOU,2144975,1500,1500,1000,1500,0,0,0,0,0,0,0,0,0,0,1768451511.100341,0.39984
IMU,2184959,0,2.638206751726102e-05,6.493055843748152e-05,7.904221274657175e-05,-1.8929553031921387,0.006860001012682915,-9.813314437866211,0,0,25.13692855834961,1,1,999,999,1768451511.140325,0.439824,0.439824,RCOU,2184959,1500,1500,1000,1500,0,0,0,0,0,0,0,0,0,0,1768451511.140325,0.439824
IMU,2204951,0,4.227699901093729e-05,4.579216329148039e-05,5.878584488527849e-05,-1.7324509620666504,0.0026239193975925446,-9.813512802124023,0,0,25.13825225830078,1,1,999,999,1768451511.1603172,0.459816,0.459816,RCOU,2224943,1500,1500,1000,1500,0,0,0,0,0,0,0,0,0,0,1768451511.180309,0.479808
IMU,2224943,1,-9.155410225503147e-05,-5.327936742105521e-05,-0.0001223337894771248,-1.5472478866577148,-0.0019187536090612411,-9.813528060913086,0,0,25.139577865600586,1,1,760,799,1768451511.180309,0.479808,0.47980799999999996,RCOU,2224943,1500,1500,1000,1500,0,0,0,0,0,0,0,0,0,0,1768451511.180309,0.479808
IMU,2244935,0,2.7043404770665802e-05,7.751371413178276e-06,-3.317916707601398e-05,-1.355926752090454,0.000402446195948869,-9.815771102905273,0,0,25.140901565551758,1,1,999,999,1768451511.2003012,0.4998,0.49979999999999997,RCOU,2224943,1500,1500,1000,1500,0,0,0,0,0,0,0,0,0,0,1768451511.180309,0.479808
IMU,2264927,1,0.00019944275845773518,-9.717931970953941e-05,-4.6853347157593817e-05,-1.1483246088027954,-0.0030935609247535467,-9.817211151123047,0,0,25.14222526550293,1,1,760,799,1768451511.220293,0.519792,0.519792,RCOU,2264927,1500,1500,1000,1500,0,0,0,0,0,0,0,0,0,0,1768451511.220293,0.519792
IMU,2284919,1,0.00017755862791091204,-2.8384964025462978e-05,0.00014701447798870504,-0.9438617825508118,-0.002194041386246681,-9.817922592163086,0,0,25.1435489654541,1,1,760,799,1768451511.2402852,0.539784,0.5397839999999999,RCOU,2264927,1500,1500,1000,1500,0,0,0,0,0,0,0,0,0,0,1768451511.220293,0.519792
IMU,2304911,0,0.00011987228208454326,-1.663472539803479e-05,4.667571192840114e-05,-0.758081316947937,0.0007300476427190006,-9.817282676696777,0,0,25.144872665405273,1,1,999,999,1768451511.260277,0.559776,0.5597759999999999,RCOU,2304911,1500,1500,1000,1500,0,0,0,0,0,0,0,0,0,0,1768451511.260277,0.559776
IMU,2324903,0,2.7357704311725684e-05,-3.207043482689187e-05,-8.10949131846428e-06,-0.578900933265686,-0.0008762984070926905,-9.81711483001709,0,0,25.146196365356445,1,1,999,999,1768451511.2802691,0.579768,0.579768,RCOU,2304911,1500,1500,1000,1500,0,0,0,0,0,0,0,0,0,0,1768451511.260277,0.559776
IMU,2344895,1,0.00016244646394625306,0.00014904109411872923,1.808348679332994e-05,-0.41047799587249756,0.0011657931609079242,-9.819869995117188,0,0,25.147520065307617,1,1,760,799,1768451511.300261,0.59976,0.59976,RCOU,2344895,1500,1500,1000,1500,0,0,0,0,0,0,0,0,0,0,1768451511.300261,0.59976
IMU,2364887,0,-1.0863946954486892e-05,7.526045374106616e-05,3.047488644369878e-05,-0.2697784900665283,0.0005312602734193206,-9.818690299987793,0,0,25.14884376525879,1,1,999,999,1768451511.3202531,0.619752,0.619752,RCOU,2344895,1500,1500,1000,1500,0,0,0,0,0,0,0,0,0,0,1768451511.300261,0.59976
IMU,2384879,1,-5.9822377806995064e-05,0.00010904966620728374,-5.7512239436618984e-05,-0.14340095221996307,-0.0011107214959338307,-9.820566177368164,0,0,25.15016746520996,1,1,760,799,1768451511.3402452,0.639744,0.639744,RCOU,2384879,1500,1500,1000,1500,0,0,0,0,0,0,0,0,0,0,1768451511.3402452,0.639744
IMU,2404871,1,3.858886702801101e-05,4.876401726505719e-05,-8.162784797605127e-05,-0.038919590413570404,-0.0037591862492263317,-9.820043563842773,0,0,25.1514892578125,1,1,760,799,1768451511.3602371,0.659736,0.659736,RCOU,2384879,1500,1500,1000,1500,0,0,0,0,0,0,0,0,0,0,1768451511.3402452,0.639744
IMU,2424863,0,1.1800695574493147e-05,1.3634384231409058e-05,3.1551015126751736e-05,0.04242387413978577,0.00013815041165798903,-9.817926406860352,0,0,25.152812957763672,1,1,999,999,1768451511.3802292,0.679728,0.679728,RCOU,2424863,1500,1500,1000,1500,0,0,0,0,0,0,0,0,0,0,1768451511.3802292,0.679728
IMU,2444855,1,6.312839832389727e-05,-7.547217683168128e-05,-0.0001287198974750936,0.10995690524578094,-0.0023588789626955986,-9.817237854003906,0,0,25.154136657714844,1,1,760,799,1768451511.400221,0.69972,0.69972,RCOU,2424863,1500,1500,1000,1500,0,0,0,0,0,0,0,0,0,0,1768451511.3802292,0.679728
IMU,2464847,1,-7.438154716510326e-05,-0.0001360830501653254,0.00012585532385855913,0.15698206424713135,-0.0019339494174346328,-9.816269874572754,0,0,25.155460357666016,1,1,760,799,1768451511.4202132,0.719712,0.719712,RCOU,2464847,1500,1500,1000,1500,0,0,0,0,0,0,0,0,0,0,1768451511.4202132,0.719712
IMU,2484839,1,-6.375644443323836e-05,-0.00020001587108708918,-2.7501095246407203e-05,0.18825304508209229,-0.0028004725463688374,-9.816862106323242,0,0,25.156782150268555,1,1,760,799,1768451511.440205,0.739704,0.7397039999999999,RCOU,2464847,1500,1500,1000,1500,0,0,0,0,0,0,0,0,0,0,1768451511.4202132,0.719712
IMU,2504831,1,0.00013886639499105513,2.677293923625257e-05,0.000127540944959037,0.20411625504493713,-0.0011128324549645185,-9.821319580078125,0,0,25.158103942871094,1,1,760,799,1768451511.4601972,0.759696,0.7596959999999999,RCOU,2504831,1500,1500,1000,1500,0,0,0,0,0,0,0,0,0,0,1768451511.4601972,0.759696
IMU,2524823,1,0.0002117371914209798,6.897163257235661e-05,3.494727206998505e-05,0.20810475945472717,-0.003766000736504793,-9.820265769958496,0,0,25.159427642822266,1,1,760,799,1768451511.480189,0.779688,0.7796879999999999,RCOU,2504831,1500,1500,1000,1500,0,0,0,0,0,0,0,0,0,0,1768451511.4601972,0.759696
IMU,2544815,1,-1.1055723916797433e-05,0.00010107268462888896,0.00014630562509410083,0.20769253373146057,-0.0006895493716001511,-9.819222450256348,0,0,25.160749435424805,1,1,760,799,1768451511.5001812,0.79968,0.79968,RCOU,2544815,1500,1500,1000,1500,0,0,0,0,0,0,0,0,0,0,1768451511.5001812,0.79968
IMU,2564807,0,3.6482531868387014e-05,5.732753379561473e-06,-2.248888267786242e-05,0.19500212371349335,-1.4888721125316806e-05,-9.818893432617188,0,0,25.162073135375977,1,1,999,999,1768451511.520173,0.819672,0.819672,RCOU,2544815,1500,1500,1000,1500,0,0,0,0,0,0,0,0,0,0,1768451511.5001812,0.79968
IMU,2584799,0,3.179792884111521e-06,2.5288965844083577e-05,5.19628738402389e-05,0.1774507462978363,-0.0006830148631706834,-9.819265365600586,0,0,25.163394927978516,1,1,999,999,1768451511.5401652,0.839664,0.839664,RCOU,2584799,1500,1500,1000,1500,0,0,0,0,0,0,0,0,0,0,1768451511.5401652,0.839664
IMU,2604791,0,4.904932575300336e-05,0.00013546075206249952,3.765060682781041e-05,0.15555505454540253,-0.001058379653841257,-9.817947387695312,0,0,25.164716720581055,1,1,999,999,1768451511.560157,0.859656,0.859656,RCOU,2584799,1500,1500,1000,1500,0,0,0,0,0,0,0,0,0,0,1768451511.5401652,0.839664
IMU,2624783,0,3.4786182368407026e-05,1.866834645625204e-05,3.866984843625687e-05,0.131802499294281,-0.0007571267196908593,-9.817123413085938,0,0,25.166040420532227,1,1,999,999,1768451511.5801492,0.879648,0.879648,RCOU,2624783,1500,1500,1000,1500,0,0,0,0,0,0,0,0,0,0,1768451511.5801492,0.879648
IMU,2644775,1,-5.628620783681981e-05,-6.397611286956817e-05,-3.7998597690602764e-05,0.10677532851696014,-0.001493796706199646,-9.819025039672852,0,0,25.167362213134766,1,1,760,799,1768451511.600141,0.89964,0.89964,RCOU,2624783,1500,1500,1000,1500,0,0,0,0,0,0,0,0,0,0,1768451511.5801492,0.879648
IMU,2664767,0,1.6337626220774837e-05,5.829286965308711e-05,2.752460386545863e-05,0.0814560204744339,-0.0007279969286173582,-9.817652702331543,0,0,25.168684005737305,1,1,999,999,1768451511.6201332,0.919632,0.919632,RCOU,2664767,1500,1500,1000,1500,0,0,0,0,0,0,0,0,0,0,1768451511.6201332,0.919632
IMU,2684759,0,5.353239976102486e-05,3.967853626818396e-05,4.422273923410103e-05,0.05786865949630737,-0.0020997822284698486,-9.818009376525879,0,0,25.170005798339844,1,1,999,999,1768451511.640125,0.939624,0.9396239999999999,RCOU,2664767,1500,1500,1000,1500,0,0,0,0,0,0,0,0,0,0,1768451511.6201332,0.919632
IMU,2704751,1,1.351127025372989e-06,-5.020074240746908e-05,-1.0144995030714199e-05,0.036428093910217285,-0.0036906730383634567,-9.815535545349121,0,0,25.171329498291016,1,1,760,799,1768451511.6601171,0.959616,0.9596159999999999,RCOU,2704751,1500,1500,1000,1500,0,0,0,0,0,0,0,0,0,0,1768451511.6601171,0.959616
IMU,2724743,1,-9.375692752655596e-05,0.00026650624931789935,-0.00014613807434216142,0.017699815332889557,-0.0032819919288158417,-9.818931579589844,0,0,25.172651290893555,1,1,760,799,1768451511.680109,0.979608,0.9796079999999999,RCOU,2704751,1500,1500,1000,1500,0,0,0,0,0,0,0,0,0,0,1768451511.6601171,0.959616
IMU,2744735,1,6.911247510288376e-06,0.0003002947778441012,-0.00016435795987490565,-3.848367487080395e-05,4.687166801886633e-05,-9.817439079284668,0,0,25.173973083496094,1,1,760,799,1768451511.7001011,0.9996,0.9995999999999999,RCOU,2744735,1500,1500,1000,1500,0,0,0,0,0,0,0,0,0,0,1768451511.7001011,0.9996
IMU,2764727,0,8.671999967191368e-05,2.6682097086450085e-05,-8.961400453699753e-06,-0.01485703606158495,-0.0017233872786164284,-9.816690444946289,0,0,25.17529296875,1,1,999,999,1768451511.7200933,1.019592,1.019592,RCOU,2784719,1500,1500,1000,1500,0,0,0,0,0,0,0,0,0,0,1768451511.7400851,1.039584
IMU,2784719,1,-4.506665936787613e-05,0.00012291486200410873,-0.00031528540421277285,-0.025405531749129295,-0.0035738633014261723,-9.817176818847656,0,0,25.176616668701172,1,1,760,799,1768451511.7400851,1.039584,1.039584,RCOU,2784719,1500,1500,1000,1500,0,0,0,0,0,0,0,0,0,0,1768451511.7400851,1.039584
IMU,2804711,0,7.30828833184205e-06,4.084965621586889e-05,5.926481026108377e-05,-0.034665729850530624,-1.738821629260201e-05,-9.817028045654297,0,0,25.177936553955078,1,1,999,999,1768451511.7600772,1.059576,1.0595759999999999,RCOU,2784719,1500,1500,1000,1500,0,0,0,0,0,0,0,0,0,0,1768451511.7400851,1.039584
IMU,2824703,0,-8.81986488820985e-06,9.884123574011028e-05,3.7131070712348446e-05,-0.03950469568371773,-0.00043246836867183447,-9.816261291503906,0,0,25.179258346557617,1,1,999,999,1768451511.780069,1.079568,1.0795679999999999,RCOU,2824703,1500,1500,1000,1500,0,0,0,0,0,0,0,0,0,0,1768451511.780069,1.079568
IMU,2844695,0,4.3212603486608714e-05,0.00014790604473091662,0.00013763582683168352,-0.043816547840833664,-0.0006444447790272534,-9.816934585571289,0,0,25.180580139160156,1,1,999,999,1768451511.8000612,1.09956,1.0995599999999999,RCOU,2824703,1500,1500,1000,1500,0,0,0,0,0,0,0,0,0,0,1768451511.780069,1.079568
IMU,2864687,0,6.80125376675278e-05,4.781660754815675e-05,8.062564302235842e-05,-0.044552333652973175,-0.0011823090026155114,-9.817153930664062,0,0,25.181901931762695,1,1,999,999,1768451511.820053,1.119552,1.1195519999999999,RCOU,2864687,1500,1500,1000,1500,0,0,0,0,0,0,0,0,0,0,1768451511.820053,1.119552
IMU,2884679,1,0.00010261630814056844,3.311735054012388e-05,0.00027314788894727826,-0.04330109804868698,-0.0006513036787509918,-9.81785774230957,0,0,25.1832218170166,1,1,760,799,1768451511.8400452,1.139544,1.139544,RCOU,2864687,1500,1500,1000,1500,0,0,0,0,0,0,0,0,0,0,1768451511.820053,1.119552
IMU,2904671,1,0.0001963127142516896,0.00011140805145259947,0.000352041213773191,-0.04341734200716019,-0.002063311170786619,-9.81781005859375,0,0,25.18454360961914,1,1,760,799,1768451511.860037,1.159536,1.159536,RCOU,2904671,1500,1500,1000,1500,0,0,0,0,0,0,0,0,0,0,1768451511.860037,1.159536
IMU,2924663,1,7.736412226222456e-05,8.516994421370327e-05,0.00019025866640731692,-0.039981551468372345,-0.0003077267319895327,-9.816971778869629,0,0,25.185863494873047,1,1,760,799,1768451511.8800292,1.179528,1.179528,RCOU,2904671,1500,1500,1000,1500,0,0,0,0,0,0,0,0,0,0,1768451511.860037,1.159536
IMU,2944655,0,7.00681412126869e-05,2.1038755221525207e-05,7.293846283573657e-05,-0.03634543716907501,-0.00045416707871481776,-9.815925598144531,0,0,25.187185287475586,1,1,999,999,1768451511.900021,1.19952,1.19952,RCOU,2944655,1500,1500,1000,1500,0,0,0,0,0,0,0,0,0,0,1768451511.900021,1.19952
IMU,2964647,1,-6.626029789913446e-05,-8.087436435744166e-05,0.00034195734770037234,-0.03236367553472519,0.000220484085730277,-9.816767692565918,0,0,25.188505172729492,1,1,760,799,1768451511.9200132,1.219512,1.219512,RCOU,2944655,1500,1500,1000,1500,0,0,0,0,0,0,0,0,0,0,1768451511.900021,1.19952
IMU,2984639,1,-3.2586685847491026e-05,0.00022109186102170497,-9.746410069055855e-05,-0.027101783081889153,-0.0025918823666870594,-9.818815231323242,0,0,25.18982696533203,1,1,760,799,1768451511.940005,1.239504,1.239504,RCOU,2984639,1500,1500,1000,1500,0,0,0,0,0,0,0,0,0,0,1768451511.940005,1.239504
IMU,3004631,1,2.162651071557775e-05,-4.3946944060735404e-05,0.00022445936338044703,-0.022146768867969513,-0.002135631861165166,-9.816625595092773,0,0,25.191146850585938,1,1,760,799,1768451511.9599972,1.259496,1.259496,RCOU,2984639,1500,1500,1000,1500,0,0,0,0,0,0,0,0,0,0,1768451511.940005,1.239504
IMU,3024623,0,4.954973337589763e-05,7.341019227169454e-05,9.990440048568416e-06,-0.01806478016078472,-0.00033203064231202006,-9.817858695983887,0,0,25.192468643188477,1,1,999,999,1768451511.979989,1.279488,1.279488,RCOU,3024623,1500,1500,1000,1500,0,0,0,0,0,0,0,0,0,0,1768451511.979989,1.279488
IMU,3044615,0,7.211785850813612e-05,5.262449485599063e-05,4.726892075268552e-05,-0.014399023726582527,0.00029415913741104305,-9.817546844482422,0,0,25.193788528442383,1,1,999,999,1768451511.9999812,1.29948,1.29948,RCOU,3024623,1500,1500,1000,1500,0,0,0,0,0,0,0,0,0,0,1768451511.979989,1.279488
IMU,3064607,0,3.202456719009206e-05,4.8812733439262956e-05,2.9262566386023536e-05,-0.009733341634273529,-0.00048069344484247267,-9.817581176757812,0,0,25.19510841369629,1,1,999,999,1768451512.019973,1.319472,1.319472,RCOU,3064607,1500,1500,1000,1500,0,0,0,0,0,0,0,0,0,0,1768451512.019973,1.319472
IMU,3084599,0,3.7724275898654014e-05,4.4428379624150693e-05,-1.5537447325186804e-05,-0.006016015540808439,-0.0002517172833904624,-9.818230628967285,0,0,25.196430206298828,1,1,999,999,1768451512.0399652,1.339464,1.339464,RCOU,3064607,1500,1500,1000,1500,0,0,0,0,0,0,0,0,0,0,1768451512.019973,1.319472
IMU,3104591,0,2.9013728635618463e-05,0.00010297644621459767,3.1851883250055835e-05,-0.0026611480861902237,-0.001337643712759018,-9.817107200622559,0,0,25.197750091552734,1,1,999,999,1768451512.059957,1.359456,1.359456,RCOU,3104591,1500,1500,1000,1500,0,0,0,0,0,0,0,0,0,0,1768451512.059957,1.359456
IMU,3124583,1,-0.00016962461813818663,3.706084316945635e-05,-3.901164745911956e-05,-0.002148713916540146,0.0012028010096400976,-9.816791534423828,0,0,25.199068069458008,1,1,760,799,1768451512.0799491,1.379448,1.379448,RCOU,3104591,1500,1500,1000,1500,0,0,0,0,0,0,0,0,0,0,1768451512.059957,1.359456
IMU,3144575,1,-0.00016325930482707918,-0.00011574453674256802,-8.443382102996111e-05,-0.00023239993606694043,-0.0015052796807140112,-9.816642761230469,0,0,25.200389862060547,1,1,760,799,1768451512.0999413,1.39944,1.39944,RCOU,3144575,1500,1500,1000,1500,0,0,0,0,0,0,0,0,0,0,1768451512.0999413,1.39944
IMU,3164567,1,-0.0001253703812835738,8.882215479388833e-05,0.00021263457892928272,0.0034492542035877705,5.288209649734199e-06,-9.818711280822754,0,0,25.201709747314453,1,1,760,799,1768451512.1199331,1.419432,1.419432,RCOU,3144575,1500,1500,1000,1500,0,0,0,0,0,0,0,0,0,0,1768451512.0999413,1.39944
IMU,3184559,0,1.7761656636139378e-05,2.814609615597874e-05,0.00011700738104991615,0.00474087567999959,-0.0007401013281196356,-9.817310333251953,0,0,25.20302963256836,1,1,1000,1000,1768451512.1399252,1.439424,1.439424,RCOU,3184559,1500,1500,1000,1500,0,0,0,0,0,0,0,0,0,0,1768451512.1399252,1.439424
IMU,3204551,0,1.552607272969908e-06,7.579200610052794e-05,0.00010310268407920375,0.004501304589211941,-0.0004619543324224651,-9.81660270690918,0,0,25.204349517822266,1,1,1000,1000,1768451512.159917,1.459416,1.4594159999999998,RCOU,3184559,1500,1500,1000,1500,0,0,0,0,0,0,0,0,0,0,1768451512.1399252,1.439424
IMU,3224543,0,7.84594303695485e-05,3.6775840271729976e-05,5.4004485718905926e-05,0.004872804507613182,-0.000558776780962944,-9.817057609558105,0,0,25.20566749572754,1,1,1000,1000,1768451512.1799092,1.479408,1.4794079999999998,RCOU,3224543,1500,1500,1000,1500,0,0,0,0,0,0,0,0,0,0,1768451512.1799092,1.479408
IMU,3244535,0,0.00010933860903605819,1.962519672815688e-05,0.00010724316234700382,0.004595677834004164,-0.00028201050008647144,-9.817684173583984,0,0,25.206987380981445,1,1,1000,1000,1768451512.199901,1.4994,1.4993999999999998,RCOU,3224543,1500,1500,1000,1500,0,0,0,0,0,0,0,0,0,0,1768451512.1799092,1.479408
IMU,3264527,0,0.00013690385094378144,5.491917363542598e-06,8.862918912200257e-05,0.0043708886951208115,-0.0005760291824117303,-9.816570281982422,0,0,25.20830726623535,1,1,1000,1000,1768451512.2198932,1.519392,1.5193919999999999,RCOU,3264527,1500,1500,1000,1500,0,0,0,0,0,0,0,0,0,0,1768451512.2198932,1.519392
IMU,3284519,1,2.1626909074257128e-05,0.00023591147328261286,0.0002071171038551256,0.007064055651426315,-0.00010754778486443684,-9.816255569458008,0,0,25.209562301635742,1,1,760,799,1768451512.239885,1.539384,1.5393839999999999,RCOU,3264527,1500,1500,1000,1500,0,0,0,0,0,0,0,0,0,0,1768451512.2198932,1.519392
IMU,3304511,1,0.00010333868704037741,4.233954314258881e-05,7.511270814575255e-05,0.006734251510351896,-0.002738887444138527,-9.81747055053711,0,0,25.210880279541016,1,1,760,799,1768451512.2598772,1.559376,1.5593759999999999,RCOU,3304511,1500,1500,1000,1500,0,0,0,0,0,0,0,0,0,0,1768451512.2598772,1.559376
IMU,3324503,1,-7.654898217879236e-05,9.06285858945921e-05,0.00012081842578481883,0.007371337153017521,-0.002903328277170658,-9.816609382629395,0,0,25.212200164794922,1,1,760,799,1768451512.279869,1.579368,1.5793679999999999,RCOU,3304511,1500,1500,1000,1500,0,0,0,0,0,0,0,0,0,0,1768451512.2598772,1.559376
IMU,3344495,0,6.316233339020982e-05,6.854577804915607e-05,7.678593101445585e-05,0.002911260351538658,-7.967109922901727e-06,-9.817781448364258,0,0,25.213584899902344,1,1,1000,1000,1768451512.2998612,1.59936,1.59936,RCOU,3344495,1500,1500,1000,1500,0,0,0,0,0,0,0,0,0,0,1768451512.2998612,1.59936
IMU,3364487,1,8.596264524385333e-05,2.161782504117582e-05,5.191076979826903e-06,-0.001894180430099368,-0.0008026048308238387,-9.819427490234375,0,0,25.2148380279541,1,1,760,799,1768451512.319853,1.619352,1.619352,RCOU,3344495,1500,1500,1000,1500,0,0,0,0,0,0,0,0,0,0,1768451512.2998612,1.59936
IMU,3384479,1,0.00031527417013421655,0.00014194127288646996,6.241604751267005e-06,0.0040521565824747086,0.0011724778451025486,-9.818464279174805,0,0,25.216156005859375,1,1,760,799,1768451512.3398452,1.639344,1.639344,RCOU,3384479,1500,1500,1000,1500,0,0,0,0,0,0,0,0,0,0,1768451512.3398452,1.639344
IMU,3404471,1,3.2654534152243286e-05,-2.846613597284886e-06,-7.63638672651723e-05,0.001330542960204184,-0.001106131705455482,-9.819414138793945,0,0,25.21747589111328,1,1,760,799,1768451512.359837,1.659336,1.659336,RCOU,3384479,1500,1500,1000,1500,0,0,0,0,0,0,0,0,0,0,1768451512.3398452,1.639344
IMU,3424463,0,0.0001233543298440054,0.00011959992843912914,7.005176303209737e-05,0.0009193739388138056,-0.000814375001937151,-9.815983772277832,0,0,25.218860626220703,1,1,1000,1000,1768451512.3798292,1.679328,1.679328,RCOU,3424463,1500,1500,1000,1500,0,0,0,0,0,0,0,0,0,0,1768451512.3798292,1.679328
IMU,3444455,1,-7.148530858103186e-05,-1.0598621884128079e-05,3.30004004354123e-05,0.0014033264014869928,-0.002408374333754182,-9.818979263305664,0,0,25.220111846923828,1,1,760,799,1768451512.399821,1.69932,1.69932,RCOU,3424463,1500,1500,1000,1500,0,0,0,0,0,0,0,0,0,0,1768451512.3798292,1.679328
IMU,3464447,1,-2.3972776034497656e-05,-3.180593694196432e-06,8.535462256986648e-05,0.0006273980834521353,0.0004378448938950896,-9.816901206970215,0,0,25.221431732177734,1,1,760,799,1768451512.4198132,1.719312,1.719312,RCOU,3464447,1500,1500,1000,1500,0,0,0,0,0,0,0,0,0,0,1768451512.4198132,1.719312
IMU,3484439,1,-0.00016509323904756457,0.00021527550416067243,-8.697836165083572e-05,-0.0014615149702876806,-0.0002729901752900332,-9.818498611450195,0,0,25.222749710083008,1,1,760,799,1768451512.439805,1.739304,1.739304,RCOU,3464447,1500,1500,1000,1500,0,0,0,0,0,0,0,0,0,0,1768451512.4198132,1.719312
IMU,3504431,1,-7.476397877326235e-05,0.0002565676986705512,0.00020948619931004941,-0.0015501657035201788,-0.0016677406383678317,-9.817299842834473,0,0,25.22406768798828,1,1,760,799,1768451512.4597971,1.759296,1.759296,RCOU,3504431,1500,1500,1000,1500,0,0,0,0,0,0,0,0,0,0,1768451512.4597971,1.759296
IMU,3524423,1,2.1049361748737283e-05,0.00014279253082349896,0.0001688451593508944,0.000494730775244534,-0.0029829656705260277,-9.817298889160156,0,0,25.225387573242188,1,1,760,799,1768451512.479789,1.779288,1.779288,RCOU,3504431,1500,1500,1000,1500,0,0,0,0,0,0,0,0,0,0,1768451512.4597971,1.759296
IMU,3544415,1,6.246088742045686e-05,0.00012139127647969872,-9.976715227821842e-05,0.0005704392096959054,-0.002159447642043233,-9.815921783447266,0,0,25.22670555114746,1,1,760,799,1768451512.4997811,1.79928,1.79928,RCOU,3544415,1500,1500,1000,1500,0,0,0,0,0,0,0,0,0,0,1768451512.4997811,1.79928
IMU,3564407,1,-0.0001136957507696934,9.416900138603523e-05,0.00011186378833372146,-0.001988587435334921,-0.0014557420508936048,-9.818065643310547,0,0,25.228023529052734,1,1,760,799,1768451512.5197732,1.819272,1.819272,RCOU,3544415,1500,1500,1000,1500,0,0,0,0,0,0,0,0,0,0,1768451512.4997811,1.79928
IMU,3584399,1,-2.9533548513427377e-05,-1.5870977222220972e-05,6.590421435248572e-07,-0.0020960895344614983,0.0018865854945033789,-9.817846298217773,0,0,25.229341506958008,1,1,760,799,1768451512.5397651,1.839264,1.839264,RCOU,3584399,1500,1500,1000,1500,0,0,0,0,0,0,0,0,0,0,1768451512.5397651,1.839264
IMU,3604391,1,-0.00010576100612524897,-0.00013549887808039784,0.00014079258835408837,-6.75387418596074e-05,-0.0005931972991675138,-9.818679809570312,0,0,25.23065948486328,1,1,760,799,1768451512.5597572,1.859256,1.859256,RCOU,3624383,1500,1500,1000,1500,0,0,0,0,0,0,0,0,0,0,1768451512.579749,1.879248
IMU,3624383,1,5.046519436291419e-05,3.7703874113503844e-05,0.00038092886097729206,-0.00034882736508734524,-0.0006752291810698807,-9.816519737243652,0,0,25.231977462768555,1,1,760,799,1768451512.579749,1.879248,1.8792479999999998,RCOU,3624383,1500,1500,1000,1500,0,0,0,0,0,0,0,0,0,0,1768451512.579749,1.879248
IMU,3644375,1,7.12059554643929e-05,-6.73052272759378e-05,-0.00018906552577391267,-0.0022571920417249203,-3.7886566133238375e-05,-9.820051193237305,0,0,25.233295440673828,1,1,760,799,1768451512.5997412,1.89924,1.8992399999999998,RCOU,3624383,1500,1500,1000,1500,0,0,0,0,0,0,0,0,0,0,1768451512.579749,1.879248
IMU,3664367,1,-4.9550171752343886e-06,0.0002849915181286633,7.552478928118944e-05,-0.002989699598401785,-0.0009339719545096159,-9.817665100097656,0,0,25.2346134185791,1,1,760,799,1768451512.619733,1.919232,1.9192319999999998,RCOU,3664367,1500,1500,1000,1500,0,0,0,0,0,0,0,0,0,0,1768451512.619733,1.919232
IMU,3684359,1,2.4771168682491407e-05,8.59201536513865e-05,-2.87753869088192e-06,-0.0007814910495653749,0.0005673770792782307,-9.813742637634277,0,0,25.235931396484375,1,1,760,799,1768451512.6397252,1.939224,1.9392239999999998,RCOU,3664367,1500,1500,1000,1500,0,0,0,0,0,0,0,0,0,0,1768451512.619733,1.919232
IMU,3704351,1,-0.00013438209134619683,2.382888487773016e-05,-2.39271939790342e-05,-0.00032913623726926744,-0.002573661971837282,-9.816019058227539,0,0,25.237247467041016,1,1,760,799,1768451512.659717,1.959216,1.9592159999999998,RCOU,3704351,1500,1500,1000,1500,0,0,0,0,0,0,0,0,0,0,1768451512.659717,1.959216
IMU,3724343,1,0.00020729401148855686,-0.0002032729098573327,-0.00015092125977389514,-0.004120313562452793,-0.0015660945791751146,-9.81692123413086,0,0,25.23856544494629,1,1,760,799,1768451512.6797092,1.979208,1.9792079999999999,RCOU,3704351,1500,1500,1000,1500,0,0,0,0,0,0,0,0,0,0,1768451512.659717,1.959216
IMU,3744335,1,0.00020764698274433613,-3.5982269764645025e-05,-6.262216629693285e-05,-0.003180817933753133,-0.0019062733044847846,-9.81584358215332,0,0,25.239883422851562,1,1,760,799,1768451512.699701,1.9992,1.9991999999999999,RCOU,3744335,1500,1500,1000,1500,0,0,0,0,0,0,0,0,0,0,1768451512.699701,1.9992
IMU,3764327,1,0.00015784456627443433,0.00013411033432930708,-5.6033873988781124e-05,-0.0015260945074260235,-8.573902596253902e-05,-9.817052841186523,0,0,25.241201400756836,1,1,760,799,1768451512.7196932,2.019192,2.019192,RCOU,3744335,1500,1500,1000,1500,0,0,0,0,0,0,0,0,0,0,1768451512.699701,1.9992
IMU,3784319,1,1.607483318366576e-05,0.000153787768795155,3.7989691918483004e-05,-0.0018997038714587688,-0.0009323452832177281,-9.815045356750488,0,0,25.242517471313477,1,1,760,799,1768451512.739685,2.039184,2.039184,RCOU,3784319,1500,1500,1000,1500,0,0,0,0,0,0,0,0,0,0,1768451512.739685,2.039184
IMU,3804311,1,-1.494693151471438e-07,-2.7318892534822226e-05,0.00024576939176768064,-0.001020672614686191,-0.0015579909086227417,-9.816763877868652,0,0,25.243833541870117,1,1,760,799,1768451512.7596772,2.059176,2.059176,RCOU,3784319,1500,1500,1000,1500,0,0,0,0,0,0,0,0,0,0,1768451512.739685,2.039184
IMU,3825136,1,-0.0001165576686616987,0.00016494635201524943,0.0003213364107068628,-0.0010690459748730063,-0.0009848506888374686,-9.815787315368652,0,0,25.245283126831055,1,1,760,799,1768451512.780502,2.080001,2.0800009999999998,RCOU,3825136,1500,1500,1000,1500,0,0,0,0,0,0,0,0,0,0,1768451512.780502,2.080001
IMU,3845128,1,0.0001822694030124694,0.00026163150323554873,0.00023463123943656683,-0.0023580272682011127,-0.0004146830178797245,-9.81733512878418,0,0,25.246599197387695,1,1,760,799,1768451512.8004942,2.099993,2.099993,RCOU,3865120,1500,1500,1000,1500,0,0,0,0,0,0,0,0,0,0,1768451512.820486,2.119985
IMU,3865120,1,0.00037783669540658593,-2.7552088795346208e-05,0.00011278441525064409,-0.0012945408234372735,-0.001027049496769905,-9.81846809387207,0,0,25.24791717529297,1,1,760,799,1768451512.820486,2.119985,2.119985,RCOU,3865120,1500,1500,1000,1500,0,0,0,0,0,0,0,0,0,0,1768451512.820486,2.119985
IMU,3885112,1,-4.235657979734242e-05,3.645644028438255e-05,0.0002597637940198183,-8.212251123040915e-05,-0.0011816390324383974,-9.816137313842773,0,0,25.249235153198242,1,1,760,799,1768451512.8404782,2.139977,2.139977,RCOU,3905104,1500,1500,1000,1500,0,0,0,0,0,0,0,0,0,0,1768451512.86047,2.159969
IMU,3905104,1,4.520081347436644e-05,0.0001798408484319225,-0.00014453500625677407,-0.0017463796539232135,-0.001117057166993618,-9.814855575561523,0,0,25.250551223754883,1,1,760,799,1768451512.86047,2.159969,2.159969,RCOU,3905104,1500,1500,1000,1500,0,0,0,0,0,0,0,0,0,0,1768451512.86047,2.159969
IMU,3925096,1,-0.00011812425509560853,0.00020417847554199398,-0.00019346497720107436,-0.0022041932679712772,-0.0004937598132528365,-9.815972328186035,0,0,25.251867294311523,1,1,760,799,1768451512.8804622,2.179961,2.179961,RCOU,3945088,1500,1500,1000,1500,0,0,0,0,0,0,0,0,0,0,1768451512.900454,2.199953
IMU,3945088,1,-1.7311824194621295e-05,0.00016195536591112614,8.249362144852057e-05,-0.003434764686971903,-0.0012342090485617518,-9.818492889404297,0,0,25.253183364868164,1,1,760,799,1768451512.900454,2.199953,2.199953,RCOU,3945088,1500,1500,1000,1500,0,0,0,0,0,0,0,0,0,0,1768451512.900454,2.199953
IMU,3965080,1,0.00020274573762435466,3.994360668002628e-05,-3.674313484225422e-05,-0.001420952845364809,0.0021081112790852785,-9.817424774169922,0,0,25.254499435424805,1,1,760,799,1768451512.9204462,2.219945,2.219945,RCOU,3985072,1500,1500,1000,1500,0,0,0,0,0,0,0,0,0,0,1768451512.940438,2.239937
IMU,3985072,1,4.5175755076343194e-05,9.110142127610743e-05,-3.999011096311733e-05,-0.0004665373417083174,-0.0034757854882627726,-9.816950798034668,0,0,25.255815505981445,1,1,760,799,1768451512.940438,2.239937,2.239937,RCOU,3985072,1500,1500,1000,1500,0,0,0,0,0,0,0,0,0,0,1768451512.940438,2.239937
IMU,4005064,1,-7.885954255471006e-05,0.00015190339763648808,0.00012222706573083997,0.0010422652121633291,-0.0032128440216183662,-9.817723274230957,0,0,25.25713348388672,1,1,760,799,1768451512.9604301,2.259929,2.259929,RCOU,4025056,1500,1500,1000,1500,0,0,0,0,0,0,0,0,0,0,1768451512.980422,2.279921
IMU,4025056,1,0.00011962043936364353,2.9558592359535396e-05,0.0001911113504320383,-0.0026392790023237467,-0.00014103877765592188,-9.818914413452148,0,0,25.25844955444336,1,1,760,799,1768451512.980422,2.279921,2.279921,RCOU,4025056,1500,1500,1000,1500,0,0,0,0,0,0,0,0,0,0,1768451512.980422,2.279921
IMU,4045048,1,-0.00011381175136193633,0.0001242724247276783,-8.777047696639784e-06,-0.0012199233751744032,-0.0009290243033319712,-9.818514823913574,0,0,25.259765625,1,1,760,799,1768451513.0004141,2.299913,2.299913,RCOU,4065040,1500,1500,1000,1500,0,0,0,0,0,0,0,0,0,0,1768451513.0204062,2.319905
IMU,4065040,1,0.00013607260189019144,0.00024299416691064835,0.000299586245091632,-0.0003202413208782673,-0.001965603791177273,-9.817142486572266,0,0,25.26108169555664,1,1,760,799,1768451513.0204062,2.319905,2.319905,RCOU,4065040,1500,1500,1000,1500,0,0,0,0,0,0,0,0,0,0,1768451513.0204062,2.319905
IMU,4085032,1,0.00011842633102787659,1.572512701386586e-05,0.00027284660609439015,-0.0003581251366995275,0.00013183904229663312,-9.816865921020508,0,0,25.26239585876465,1,1,760,799,1768451513.0403981,2.339897,2.339897,RCOU,4105024,1500,1500,1000,1500,0,0,0,0,0,0,0,0,0,0,1768451513.0603902,2.359889
IMU,4105024,1,0.00020347294048406184,0.00018496427219361067,-0.00015890150098130107,0.0006103554042056203,-0.0034486728254705667,-9.817778587341309,0,0,25.26371192932129,1,1,760,799,1768451513.0603902,2.359889,2.359889,RCOU,4105024,1500,1500,1000,1500,0,0,0,0,0,0,0,0,0,0,1768451513.0603902,2.359889
IMU,4125016,1,-0.0002321731299161911,0.00012441717262845486,-3.456305785221048e-05,-0.001762942411005497,-9.695428889244795e-05,-9.818524360656738,0,0,25.26502799987793,1,1,760,799,1768451513.080382,2.379881,2.3798809999999997,RCOU,4105024,1500,1500,1000,1500,0,0,0,0,0,0,0,0,0,0,1768451513.0603902,2.359889
IMU,4145008,1,-6.002122245263308e-05,0.0001951489393832162,-4.2110696085728705e-05,-0.002161662792786956,0.00045896880328655243,-9.816610336303711,0,0,25.26634407043457,1,1,760,799,1768451513.1003742,2.399873,2.399873,RCOU,4145008,1500,1500,1000,1500,0,0,0,0,0,0,0,0,0,0,1768451513.1003742,2.399873
IMU,4165000,1,3.3168118534376845e-05,1.161703585239593e-05,-1.6254971342277713e-05,-0.0033514625392854214,-0.0009268446010537446,-9.815793991088867,0,0,25.26766014099121,1,1,760,799,1768451513.120366,2.419865,2.4198649999999997,RCOU,4145008,1500,1500,1000,1500,0,0,0,0,0,0,0,0,0,0,1768451513.1003742,2.399873
IMU,4184992,1,0.00025171181187033653,0.00014881846436765045,0.00018200378690380603,-0.0026314747519791126,0.0007636353257112205,-9.814342498779297,0,0,25.268909454345703,1,1,760,799,1768451513.1403582,2.439857,2.439857,RCOU,4184992,1500,1500,1000,1500,0,0,0,0,0,0,0,0,0,0,1768451513.1403582,2.439857
IMU,4204984,1,9.408371988683939e-05,5.0855269364546984e-06,8.71047013788484e-05,-0.0017465882701799273,-0.0022920104674994946,-9.816923141479492,0,0,25.270225524902344,1,1,760,799,1768451513.16035,2.459849,2.4598489999999997,RCOU,4184992,1500,1500,1000,1500,0,0,0,0,0,0,0,0,0,0,1768451513.1403582,2.439857
IMU,4224976,1,0.00016865819634404033,-0.00013906984531786293,3.7569137930404395e-05,-0.001453457516618073,-0.0025849423836916685,-9.81490707397461,0,0,25.27153968811035,1,1,760,799,1768451513.1803422,2.479841,2.479841,RCOU,4224976,1500,1500,1000,1500,0,0,0,0,0,0,0,0,0,0,1768451513.1803422,2.479841
IMU,4244968,1,0.00021240375644993037,0.00018747677677311003,-8.928994066081941e-05,-0.0007873849244788289,-0.000464762793853879,-9.817243576049805,0,0,25.27285385131836,1,1,760,799,1768451513.200334,2.499833,2.4998329999999997,RCOU,4224976,1500,1500,1000,1500,0,0,0,0,0,0,0,0,0,0,1768451513.1803422,2.479841
IMU,4264960,1,-3.457550337770954e-05,8.818203787086532e-05,2.3391019567498006e-05,-0.0013046707026660442,0.0014136788668110967,-9.817695617675781,0,0,25.274169921875,1,1,760,799,1768451513.2203262,2.519825,2.519825,RCOU,4264960,1500,1500,1000,1500,0,0,0,0,0,0,0,0,0,0,1768451513.2203262,2.519825
IMU,4284952,1,7.103879033820704e-05,0.00032317673321813345,-2.0798837795155123e-05,-0.0009416863904334605,-0.00043337937677279115,-9.819686889648438,0,0,25.27548599243164,1,1,760,799,1768451513.240318,2.539817,2.5398169999999998,RCOU,4264960,1500,1500,1000,1500,0,0,0,0,0,0,0,0,0,0,1768451513.2203262,2.519825
IMU,4304944,1,5.902102202526294e-05,0.00025837935390882194,8.86123234522529e-05,-0.0004614796198438853,-0.0024819986429065466,-9.81788444519043,0,0,25.27680015563965,1,1,760,799,1768451513.2603102,2.559809,2.559809,RCOU,4304944,1500,1500,1000,1500,0,0,0,0,0,0,0,0,0,0,1768451513.2603102,2.559809
IMU,4324936,1,7.118278972484404e-06,0.0003213983727619052,-0.0001785665372153744,-0.0003650905564427376,-0.0016355213010683656,-9.817708015441895,0,0,25.278114318847656,1,1,760,799,1768451513.280302,2.579801,2.579801,RCOU,4304944,1500,1500,1000,1500,0,0,0,0,0,0,0,0,0,0,1768451513.2603102,2.559809
IMU,4344928,1,-8.249980965047143e-06,0.00037426705239340663,-0.00017315773584414274,-0.0011022686958312988,-0.0012481757439672947,-9.81957721710205,0,0,25.279430389404297,1,1,760,799,1768451513.3002942,2.599793,2.599793,RCOU,4344928,1500,1500,1000,1500,0,0,0,0,0,0,0,0,0,0,1768451513.3002942,2.599793
IMU,4364920,1,0.0001423385547241196,3.013156856468413e-05,-8.221767348004505e-05,-0.0019604526460170746,-0.0013514204183593392,-9.816720962524414,0,0,25.280744552612305,1,1,760,799,1768451513.320286,2.619785,2.619785,RCOU,4344928,1500,1500,1000,1500,0,0,0,0,0,0,0,0,0,0,1768451513.3002942,2.599793
IMU,4384912,1,2.518618930480443e-05,7.651502528460696e-05,-4.3883235775865614e-05,-0.001348807942122221,-0.001035236637108028,-9.816733360290527,0,0,25.282058715820312,1,1,760,799,1768451513.3402781,2.639777,2.639777,RCOU,4384912,1500,1500,1000,1500,0,0,0,0,0,0,0,0,0,0,1768451513.3402781,2.639777
IMU,4404904,0,8.468349551549181e-05,3.633083906606771e-05,4.603249180945568e-05,-0.0014604449970647693,-0.0012069272343069315,-9.816250801086426,0,0,25.28337287902832,1,1,999,999,1768451513.36027,2.659769,2.659769,RCOU,4384912,1500,1500,1000,1500,0,0,0,0,0,0,0,0,0,0,1768451513.3402781,2.639777
IMU,4424896,0,8.599369903095067e-05,4.459927367861383e-05,5.6635395594639704e-05,-0.0018697024788707495,-0.0015808474272489548,-9.817085266113281,0,0,25.284687042236328,1,1,999,999,1768451513.3802621,2.679761,2.679761,RCOU,4424896,1500,1500,1000,1500,0,0,0,0,0,0,0,0,0,0,1768451513.3802621,2.679761
IMU,4444888,0,8.726192027097568e-05,0.00016158570360857993,0.00012081254681106657,-0.0002828753786161542,-0.0015996100846678019,-9.818819046020508,0,0,25.28600311279297,1,1,999,999,1768451513.4002542,2.699753,2.699753,RCOU,4424896,1500,1500,1000,1500,0,0,0,0,0,0,0,0,0,0,1768451513.3802621,2.679761
IMU,4464880,0,3.1975298497854965e-06,0.00010697401012293994,6.146726809674874e-05,-0.0009282671962864697,-0.0004266336909495294,-9.817933082580566,0,0,25.287315368652344,1,1,999,999,1768451513.4202461,2.719745,2.719745,RCOU,4464880,1500,1500,1000,1500,0,0,0,0,0,0,0,0,0,0,1768451513.4202461,2.719745
IMU,4484872,0,0.00015816967061255127,8.758606782066636e-06,7.52420091885142e-05,-0.0014893659390509129,-0.00048590602818876505,-9.816422462463379,0,0,25.288631439208984,1,1,999,999,1768451513.4402382,2.739737,2.739737,RCOU,4464880,1500,1500,1000,1500,0,0,0,0,0,0,0,0,0,0,1768451513.4202461,2.719745
IMU,4504864,0,7.365735655184835e-05,3.318413291708566e-05,4.957232886226848e-05,-0.0013611961621791124,-0.0010311829391866922,-9.817671775817871,0,0,25.28994369506836,1,1,999,999,1768451513.46023,2.759729,2.7597289999999997,RCOU,4504864,1500,1500,1000,1500,0,0,0,0,0,0,0,0,0,0,1768451513.46023,2.759729
IMU,4524856,0,6.981413753237575e-05,8.605798211647198e-05,3.510623355396092e-05,-0.0007162190740928054,-0.0005207266076467931,-9.817743301391602,0,0,25.291257858276367,1,1,999,999,1768451513.4802222,2.779721,2.779721,RCOU,4544848,1500,1500,1000,1500,0,0,0,0,0,0,0,0,0,0,1768451513.500214,2.799713
IMU,4544848,0,7.458377513103187e-05,0.0001040103888954036,-4.6644148824270815e-05,-0.0021702165249735117,-0.0010879712644964457,-9.817110061645508,0,0,25.292572021484375,1,1,999,999,1768451513.500214,2.799713,2.7997129999999997,RCOU,4544848,1500,1500,1000,1500,0,0,0,0,0,0,0,0,0,0,1768451513.500214,2.799713
IMU,4564840,0,0.0001185226283269003,9.452163067180663e-05,5.662331386702135e-05,-0.0011880274396389723,-0.0005329496343620121,-9.81755256652832,0,0,25.293886184692383,1,1,999,999,1768451513.5202062,2.819705,2.819705,RCOU,4584832,1500,1500,1000,1500,0,0,0,0,0,0,0,0,0,0,1768451513.540198,2.839697
IMU,4584832,0,6.670258881058544e-05,1.686114410404116e-05,7.341891614487395e-05,-0.0006010340293869376,-0.0013650362379848957,-9.81753158569336,0,0,25.29520034790039,1,1,999,999,1768451513.540198,2.839697,2.8396969999999997,RCOU,4584832,1500,1500,1000,1500,0,0,0,0,0,0,0,0,0,0,1768451513.540198,2.839697
IMU,4604824,0,0.00010237398964818567,-1.5488432836718857e-05,2.5004523195093498e-05,-0.000958930526394397,-0.0009708692668937147,-9.817262649536133,0,0,25.296512603759766,1,1,999,999,1768451513.5601902,2.859689,2.859689,RCOU,4624816,1500,1500,1000,1500,0,0,0,0,0,0,0,0,0,0,1768451513.580182,2.879681
IMU,4624816,0,4.3964930227957666e-05,1.9282721041236073e-05,1.70197818079032e-05,-0.0005306472303345799,-0.00025561609072610736,-9.81693172454834,0,0,25.297826766967773,1,1,999,999,1768451513.580182,2.879681,2.8796809999999997,RCOU,4624816,1500,1500,1000,1500,0,0,0,0,0,0,0,0,0,0,1768451513.580182,2.879681
IMU,4644808,0,9.849984780885279e-05,0.00011770935816457495,5.857226642547175e-05,-0.0007593085174448788,-0.001168442191556096,-9.818106651306152,0,0,25.29914093017578,1,1,999,999,1768451513.6001742,2.899673,2.899673,RCOU,4664800,1500,1500,1000,1500,0,0,0,0,0,0,0,0,0,0,1768451513.620166,2.919665
IMU,4664800,0,8.513413195032626e-05,-2.2989665012573823e-05,6.61415106151253e-05,-0.00015736022032797337,-0.0007775041740387678,-9.817827224731445,0,0,25.300453186035156,1,1,999,999,1768451513.620166,2.919665,2.9196649999999997,RCOU,4664800,1500,1500,1000,1500,0,0,0,0,0,0,0,0,0,0,1768451513.620166,2.919665
IMU,4684792,0,0.00010678803664632142,5.928725659032352e-05,3.4114887967007235e-05,-0.000720064272172749,-0.00011638023715931922,-9.81757926940918,0,0,25.30176544189453,1,1,999,999,1768451513.6401582,2.939657,2.939657,RCOU,4704784,1500,1500,1000,1500,0,0,0,0,0,0,0,0,0,0,1768451513.66015,2.959649
IMU,4704784,0,-6.424149432859849e-06,9.090492676477879e-05,8.117464312817901e-05,-0.0012839590199291706,-0.00014597676636185497,-9.817058563232422,0,0,25.30307960510254,1,1,999,999,1768451513.66015,2.959649,2.9596489999999998,RCOU,4704784,1500,1500,1000,1500,0,0,0,0,0,0,0,0,0,0,1768451513.66015,2.959649
IMU,4724776,0,9.591731941327453e-05,1.8504273612052202e-05,6.983932689763606e-05,-0.0007064871024340391,-0.000411023705964908,-9.818598747253418,0,0,25.304393768310547,1,1,999,999,1768451513.6801422,2.979641,2.979641,RCOU,4744768,1500,1500,1000,1500,0,0,0,0,0,0,0,0,0,0,1768451513.700134,2.999633
IMU,4744768,0,0.00011835509940283373,4.2959884012816474e-05,1.8803681086865254e-05,-0.001953264232724905,-0.000716661976184696,-9.818058013916016,0,0,25.305706024169922,1,1,999,999,1768451513.700134,2.999633,2.9996329999999998,RCOU,4744768,1500,1500,1000,1500,0,0,0,0,0,0,0,0,0,0,1768451513.700134,2.999633
IMU,4764760,1,0.00011680080933729187,0.000248255004407838,0.00014011075836606324,-0.003452517092227936,0.0006726009887643158,-9.817962646484375,0,0,25.307018280029297,1,1,760,799,1768451513.7201262,3.019625,3.019625,RCOU,4784752,1500,1500,1000,1500,0,0,0,0,0,0,0,0,0,0,1768451513.740118,3.039617
IMU,4784752,0,0.00010506552644073963,9.358286479255185e-05,0.0001025421661324799,-0.000441134674474597,-0.0008653515251353383,-9.817853927612305,0,0,25.308332443237305,1,1,999,999,1768451513.740118,3.039617,3.039617,RCOU,4784752,1500,1500,1000,1500,0,0,0,0,0,0,0,0,0,0,1768451513.740118,3.039617
IMU,4804744,1,0.00028985124663449824,0.00024414638755843043,-1.2698066711891443e-05,-0.0003480493905954063,0.00022432251716963947,-9.8173828125,0,0,25.30964469909668,1,1,760,799,1768451513.7601101,3.059609,3.059609,RCOU,4824736,1500,1500,1000,1500,0,0,0,0,0,0,0,0,0,0,1768451513.7801023,3.079601
IMU,4824736,1,-0.00011017613724106923,8.859430818120018e-05,0.00032655929680913687,0.0018655811436474323,-0.0005375376204028726,-9.817326545715332,0,0,25.310956954956055,1,1,760,799,1768451513.7801023,3.079601,3.079601,RCOU,4824736,1500,1500,1000,1500,0,0,0,0,0,0,0,0,0,0,1768451513.7801023,3.079601
IMU,4844728,1,-7.115566404536366e-05,1.2209394299134146e-05,0.000172455795109272,0.0005942003335803747,-0.0025062919594347477,-9.815696716308594,0,0,25.31226921081543,1,1,760,799,1768451513.8000941,3.099593,3.099593,RCOU,4864720,1500,1500,1000,1500,0,0,0,0,0,0,0,0,0,0,1768451513.8200862,3.119585
IMU,4864720,1,0.00017001820378936827,0.00016634093481115997,-5.9239646361675113e-05,-0.0007759146392345428,-0.0015883396845310926,-9.819365501403809,0,0,25.313583374023438,1,1,760,799,1768451513.8200862,3.119585,3.119585,RCOU,4864720,1500,1500,1000,1500,0,0,0,0,0,0,0,0,0,0,1768451513.8200862,3.119585
IMU,4884712,1,0.00010718288103817031,5.777674959972501e-05,8.46206967253238e-05,0.0006062894826754928,-0.001088464050553739,-9.816715240478516,0,0,25.314895629882812,1,1,760,799,1768451513.840078,3.139577,3.139577,RCOU,4904704,1500,1500,1000,1500,0,0,0,0,0,0,0,0,0,0,1768451513.8600702,3.159569
IMU,4904704,1,0.00018755831115413457,-0.00010403272608527914,1.0729700079536997e-05,-0.0030685814563184977,-0.001923382980749011,-9.816394805908203,0,0,25.316207885742188,1,1,760,799,1768451513.8600702,3.159569,3.159569,RCOU,4904704,1500,1500,1000,1500,0,0,0,0,0,0,0,0,0,0,1768451513.8600702,3.159569
IMU,4924696,1,-5.3482224757317454e-05,-7.989592268131673e-05,0.00013221216795500368,-0.0018271385924890637,0.0010849093087017536,-9.819015502929688,0,0,25.31751823425293,1,1,760,799,1768451513.880062,3.179561,3.1795609999999996,RCOU,4904704,1500,1500,1000,1500,0,0,0,0,0,0,0,0,0,0,1768451513.8600702,3.159569
IMU,4944688,1,-2.4123632101691328e-05,-3.019765608769376e-05,-1.0574979569355492e-05,0.0011337409960106015,0.0005021155811846256,-9.82022476196289,0,0,25.318830490112305,1,1,760,799,1768451513.9000542,3.199553,3.199553,RCOU,4944688,1500,1500,1000,1500,0,0,0,0,0,0,0,0,0,0,1768451513.9000542,3.199553
IMU,4964680,1,3.609055784181692e-05,-5.936694651609287e-05,0.00010087458213092759,0.0004741340526379645,0.0007696608081459999,-9.818965911865234,0,0,25.320144653320312,1,1,760,799,1768451513.920046,3.219545,3.2195449999999997,RCOU,4944688,1500,1500,1000,1500,0,0,0,0,0,0,0,0,0,0,1768451513.9000542,3.199553
IMU,4984672,1,9.808898175833747e-05,-0.00010787800420075655,0.00028391554951667786,-0.0011793021112680435,-0.0012424218002706766,-9.819449424743652,0,0,25.321455001831055,1,1,760,799,1768451513.9400382,3.239537,3.239537,RCOU,4984672,1500,1500,1000,1500,0,0,0,0,0,0,0,0,0,0,1768451513.9400382,3.239537
IMU,5004664,1,7.313087735383306e-06,1.0585085874481592e-05,0.00021549317170865834,-0.0002473565982654691,-8.299882028950378e-05,-9.81723690032959,0,0,25.32276725769043,1,1,760,799,1768451513.96003,3.259529,3.2595289999999997,RCOU,4984672,1500,1500,1000,1500,0,0,0,0,0,0,0,0,0,0,1768451513.9400382,3.239537
IMU,5024656,1,6.430873327190056e-05,-5.733643047278747e-05,7.179482054198161e-05,-0.001589217223227024,-0.002345769666135311,-9.814637184143066,0,0,25.324079513549805,1,1,760,799,1768451513.9800222,3.279521,3.279521,RCOU,5024656,1500,1500,1000,1500,0,0,0,0,0,0,0,0,0,0,1768451513.9800222,3.279521
IMU,5044648,1,3.7090569094289094e-05,0.0003072732943110168,0.0002234272687928751,-0.0013539037900045514,-0.0010164434788748622,-9.818239212036133,0,0,25.325389862060547,1,1,760,799,1768451514.000014,3.299513,3.2995129999999997,RCOU,5024656,1500,1500,1000,1500,0,0,0,0,0,0,0,0,0,0,1768451513.9800222,3.279521
IMU,5064640,1,-0.0001685551251284778,-4.7048641135916114e-05,0.0001962845417438075,-0.0018502355087548494,-0.0006605108501389623,-9.818656921386719,0,0,25.326702117919922,1,1,760,799,1768451514.0200062,3.319505,3.319505,RCOU,5064640,1500,1500,1000,1500,0,0,0,0,0,0,0,0,0,0,1768451514.0200062,3.319505
IMU,5084632,1,-0.00015442406584043056,-6.846209544164594e-06,0.00012228265404701233,-0.003393410472199321,-0.0009978425223380327,-9.816510200500488,0,0,25.328014373779297,1,1,760,799,1768451514.039998,3.339497,3.3394969999999997,RCOU,5064640,1500,1500,1000,1500,0,0,0,0,0,0,0,0,0,0,1768451514.0200062,3.319505
IMU,5104624,1,0.0001329278020421043,0.0002146751940017566,-2.7494725145515986e-05,-0.0014307346427813172,0.0010747070191428065,-9.817276954650879,0,0,25.32932472229004,1,1,760,799,1768451514.0599902,3.359489,3.359489,RCOU,5104624,1500,1500,1000,1500,0,0,0,0,0,0,0,0,0,0,1768451514.0599902,3.359489
IMU,5124616,1,0.0003228145942557603,-7.146495045162737e-05,0.00017345430387649685,-0.0012274733744561672,0.0003967511001974344,-9.819112777709961,0,0,25.330636978149414,1,1,760,799,1768451514.079982,3.379481,3.3794809999999997,RCOU,5104624,1500,1500,1000,1500,0,0,0,0,0,0,0,0,0,0,1768451514.0599902,3.359489
IMU,5144608,1,0.00019341173174325377,-0.00014437372738029808,9.326435247203335e-05,-0.0026225128676742315,-0.0016566090052947402,-9.81838321685791,0,0,25.331947326660156,1,1,760,799,1768451514.0999742,3.399473,3.399473,RCOU,5144608,1500,1500,1000,1500,0,0,0,0,0,0,0,0,0,0,1768451514.0999742,3.399473
IMU,5164600,1,-0.00012748950393870473,5.2866293117403984e-05,0.00015838137187529355,0.00043309101602062583,-0.0011806682450696826,-9.819145202636719,0,0,25.33325958251953,1,1,760,799,1768451514.119966,3.419465,3.4194649999999998,RCOU,5144608,1500,1500,1000,1500,0,0,0,0,0,0,0,0,0,0,1768451514.0999742,3.399473
IMU,5184592,1,0.0004490456194616854,-5.1345632527954876e-05,-3.8440626667579636e-05,-0.0023167147301137447,-0.0018156208097934723,-9.817728042602539,0,0,25.334569931030273,1,1,760,799,1768451514.1399581,3.439457,3.439457,RCOU,5184592,1500,1500,1000,1500,0,0,0,0,0,0,0,0,0,0,1768451514.1399581,3.439457
IMU,5204584,1,0.0003593168512452394,-3.4080963814631104e-05,5.082451389171183e-05,-0.00041983346454799175,0.0011049633612856269,-9.816040992736816,0,0,25.335880279541016,1,1,760,799,1768451514.15995,3.459449,3.4594489999999998,RCOU,5184592,1500,1500,1000,1500,0,0,0,0,0,0,0,0,0,0,1768451514.1399581,3.439457
IMU,5224576,1,-6.946483335923404e-05,0.0001900283677969128,0.00030989147489890456,-0.0017309054965153337,0.001179814338684082,-9.817548751831055,0,0,25.33719253540039,1,1,760,799,1768451514.1799421,3.479441,3.479441,RCOU,5224576,1500,1500,1000,1500,0,0,0,0,0,0,0,0,0,0,1768451514.1799421,3.479441
IMU,5244568,1,-4.467774124350399e-05,0.0001933316234499216,-4.322781023802236e-05,-0.0015982715412974358,-0.002202346920967102,-9.815738677978516,0,0,25.338502883911133,1,1,760,799,1768451514.1999342,3.499433,3.499433,RCOU,5224576,1500,1500,1000,1500,0,0,0,0,0,0,0,0,0,0,1768451514.1799421,3.479441
IMU,5264560,1,-6.58113503959612e-06,0.00013514881720766425,5.3202107665129006e-05,-0.0017697667935863137,-0.002177739515900612,-9.816720962524414,0,0,25.339813232421875,1,1,760,799,1768451514.219926,3.519425,3.519425,RCOU,5264560,1500,1500,1000,1500,0,0,0,0,0,0,0,0,0,0,1768451514.219926,3.519425
IMU,5284552,1,9.523965127300471e-05,0.00010734725219663233,9.599424083717167e-05,-0.0019680922850966454,-0.0013466649688780308,-9.818988800048828,0,0,25.34112548828125,1,1,760,799,1768451514.2399182,3.539417,3.539417,RCOU,5264560,1500,1500,1000,1500,0,0,0,0,0,0,0,0,0,0,1768451514.219926,3.519425
IMU,5304544,1,0.00010711853246903047,0.00015974088455550373,-0.00010232110798824579,0.001182040898129344,-0.00192063651047647,-9.817052841186523,0,0,25.34243392944336,1,1,760,799,1768451514.25991,3.559409,3.559409,RCOU,5304544,1500,1500,1000,1500,0,0,0,0,0,0,0,0,0,0,1768451514.25991,3.559409
IMU,5324536,1,1.4809131243964657e-05,0.00020860982476733625,0.00027473963564261794,0.0015727949794381857,-0.0035020173527300358,-9.8148775100708,0,0,25.3437442779541,1,1,760,799,1768451514.2799022,3.579401,3.579401,RCOU,5304544,1500,1500,1000,1500,0,0,0,0,0,0,0,0,0,0,1768451514.25991,3.559409
IMU,5344528,1,6.261827365960926e-05,9.255473560187966e-05,-0.0001277478877454996,6.748627492925152e-05,-6.084679625928402e-05,-9.817399978637695,0,0,25.344989776611328,1,1,760,799,1768451514.299894,3.599393,3.5993929999999996,RCOU,5344528,1500,1500,1000,1500,0,0,0,0,0,0,0,0,0,0,1768451514.299894,3.599393
IMU,5364520,1,0.00015805069415364414,0.00018094066763296723,-1.5890302165644243e-05,-0.0014357705367729068,-0.0005789385759271681,-9.81677532196045,0,0,25.34630012512207,1,1,760,799,1768451514.3198862,3.619385,3.619385,RCOU,5384512,1500,1500,1000,1500,0,0,0,0,0,0,0,0,0,0,1768451514.339878,3.639377
IMU,5384512,1,9.023170423461124e-05,-0.00013501173816621304,0.0002233381528640166,-0.0012785197468474507,0.0008739536278881133,-9.816350936889648,0,0,25.347610473632812,1,1,760,799,1768451514.339878,3.639377,3.6393769999999996,RCOU,5384512,1500,1500,1000,1500,0,0,0,0,0,0,0,0,0,0,1768451514.339878,3.639377
IMU,5404504,1,-0.00016161253734026104,0.00023706676438450813,0.0003368206962477416,0.0009665306424722075,-0.0003241042431909591,-9.817289352416992,0,0,25.348920822143555,1,1,760,799,1768451514.3598702,3.659369,3.659369,RCOU,5424496,1500,1500,1000,1500,0,0,0,0,0,0,0,0,0,0,1768451514.379862,3.679361
IMU,5424496,1,5.263663115329109e-05,0.00014177942648530006,-3.904671302734641e-06,-0.002435591071844101,-0.0018279069336131215,-9.815196990966797,0,0,25.350231170654297,1,1,760,799,1768451514.379862,3.679361,3.6793609999999997,RCOU,5424496,1500,1500,1000,1500,0,0,0,0,0,0,0,0,0,0,1768451514.379862,3.679361
IMU,5444488,1,-3.838849806925282e-06,0.00015586937661282718,0.00024791486794129014,-0.0006885035545565188,-0.001958635402843356,-9.81923770904541,0,0,25.35154151916504,1,1,760,799,1768451514.3998542,3.699353,3.699353,RCOU,5464480,1500,1500,1000,1500,0,0,0,0,0,0,0,0,0,0,1768451514.419846,3.719345
IMU,5464480,1,-7.294309762073681e-05,8.493353379890323e-05,-1.6722069631214254e-05,-0.000995130860246718,0.00019089739362243563,-9.816790580749512,0,0,25.35284996032715,1,1,760,799,1768451514.419846,3.719345,3.7193449999999997,RCOU,5464480,1500,1500,1000,1500,0,0,0,0,0,0,0,0,0,0,1768451514.419846,3.719345
IMU,5484472,1,-5.599811265710741e-05,-6.67610511300154e-05,0.00019241181144025177,-0.0008992708753794432,-0.000808084849268198,-9.817137718200684,0,0,25.35416030883789,1,1,760,799,1768451514.4398382,3.739337,3.739337,RCOU,5504464,1500,1500,1000,1500,0,0,0,0,0,0,0,0,0,0,1768451514.45983,3.759329
IMU,5504464,1,9.643103840062395e-05,4.7034765884745866e-05,5.049234096077271e-05,-0.0018354589119553566,-0.0005996430409140885,-9.818236351013184,0,0,25.355470657348633,1,1,760,799,1768451514.45983,3.759329,3.7593289999999997,RCOU,5504464,1500,1500,1000,1500,0,0,0,0,0,0,0,0,0,0,1768451514.45983,3.759329
IMU,5524456,1,2.8519874831545167e-05,-2.4283479433506727e-05,0.00031553380540572107,0.0013525767717510462,-7.779173029121011e-05,-9.818321228027344,0,0,25.356779098510742,1,1,760,799,1768451514.4798222,3.779321,3.779321,RCOU,5544448,1500,1500,1000,1500,0,0,0,0,0,0,0,0,0,0,1768451514.499814,3.799313
IMU,5544448,1,0.0001591885811649263,-0.00018513004761189222,-4.07705592806451e-05,-0.0005738988984376192,-0.001990200486034155,-9.817179679870605,0,0,25.358089447021484,1,1,760,799,1768451514.499814,3.799313,3.7993129999999997,RCOU,5544448,1500,1500,1000,1500,0,0,0,0,0,0,0,0,0,0,1768451514.499814,3.799313
IMU,5564440,1,0.00011730440746759996,2.3212585801957175e-05,0.00012308057921472937,-0.0020372364670038223,-0.0011565303429961205,-9.818639755249023,0,0,25.359397888183594,1,1,760,799,1768451514.5198061,3.819305,3.819305,RCOU,5584432,1500,1500,1000,1500,0,0,0,0,0,0,0,0,0,0,1768451514.539798,3.839297
IMU,5584432,1,0.00010589000885374844,0.00013408214726950973,2.597703087303671e-06,-0.0003898048016708344,0.0001484332897234708,-9.818791389465332,0,0,25.360706329345703,1,1,760,799,1768451514.539798,3.839297,3.8392969999999997,RCOU,5584432,1500,1500,1000,1500,0,0,0,0,0,0,0,0,0,0,1768451514.539798,3.839297
IMU,5604424,1,0.00013982175732962787,-7.029589323792607e-05,8.406073175137863e-05,-0.0024295917246490717,-0.0017739974427968264,-9.81916618347168,0,0,25.362016677856445,1,1,760,799,1768451514.5597901,3.859289,3.859289,RCOU,5624416,1500,1500,1000,1500,0,0,0,0,0,0,0,0,0,0,1768451514.5797822,3.879281
IMU,5624416,1,0.0001302524033235386,0.00011604738392634317,5.064078504801728e-05,-0.0006311973556876183,0.0015924726612865925,-9.819551467895508,0,0,25.363327026367188,1,1,760,799,1768451514.5797822,3.879281,3.8792809999999998,RCOU,5624416,1500,1500,1000,1500,0,0,0,0,0,0,0,0,0,0,1768451514.5797822,3.879281
IMU,5644408,1,-0.0002689735556486994,0.000286032329313457,0.00012722857354674488,-0.0009529836243018508,-0.0006322584813460708,-9.8164644241333,0,0,25.364635467529297,1,1,760,799,1768451514.5997741,3.899273,3.899273,RCOU,5664400,1500,1500,1000,1500,0,0,0,0,0,0,0,0,0,0,1768451514.6197662,3.919265
IMU,5664400,1,7.389840902760625e-06,-6.981234037084505e-06,6.099948950577527e-05,6.832876533735543e-05,0.0014114633668214083,-9.815255165100098,0,0,25.365943908691406,1,1,760,799,1768451514.6197662,3.919265,3.9192649999999998,RCOU,5664400,1500,1500,1000,1500,0,0,0,0,0,0,0,0,0,0,1768451514.6197662,3.919265
IMU,5684392,1,0.00010132943862117827,5.501152918441221e-05,0.0001513675961177796,-0.0016504062805324793,-0.0006358414539135993,-9.818403244018555,0,0,25.367252349853516,1,1,760,799,1768451514.639758,3.939257,3.939257,RCOU,5704384,1500,1500,1000,1500,0,0,0,0,0,0,0,0,0,0,1768451514.6597502,3.959249
IMU,5704384,1,-5.956404493190348e-05,-4.789563718077261e-06,9.142585622612387e-05,9.780103573575616e-05,-0.00014922473928891122,-9.817380905151367,0,0,25.368560791015625,1,1,760,799,1768451514.6597502,3.959249,3.959249,RCOU,5704384,1500,1500,1000,1500,0,0,0,0,0,0,0,0,0,0,1768451514.6597502,3.959249
IMU,5724376,1,-8.738768519833684e-05,0.00013439964095596224,8.05714080343023e-05,-0.0010505698155611753,-0.0027107479982078075,-9.818424224853516,0,0,25.369871139526367,1,1,760,799,1768451514.679742,3.979241,3.979241,RCOU,5744368,1500,1500,1000,1500,0,0,0,0,0,0,0,0,0,0,1768451514.6997342,3.999233
IMU,5744368,1,-2.682612102944404e-05,-4.068466296303086e-05,0.00019064392836298794,-0.0017713959095999599,-8.926002192310989e-05,-9.817886352539062,0,0,25.371179580688477,1,1,760,799,1768451514.6997342,3.999233,3.999233,RCOU,5744368,1500,1500,1000,1500,0,0,0,0,0,0,0,0,0,0,1768451514.6997342,3.999233
IMU,5764360,1,0.00028441319591365755,-4.833012280869298e-05,-4.082746818312444e-05,-0.002185458317399025,0.0005286294035613537,-9.818205833435059,0,0,25.372488021850586,1,1,760,799,1768451514.719726,4.019225,4.019225,RCOU,5744368,1500,1500,1000,1500,0,0,0,0,0,0,0,0,0,0,1768451514.6997342,3.999233
IMU,5784352,1,0.00018101732712239027,8.065724978223443e-05,0.0001621899427846074,-0.00037837488343939185,-0.0010766059858724475,-9.818334579467773,0,0,25.373796463012695,1,1,760,799,1768451514.7397182,4.039217,4.039217,RCOU,5784352,1500,1500,1000,1500,0,0,0,0,0,0,0,0,0,0,1768451514.7397182,4.039217
IMU,5804344,1,0.00010354896221542731,0.00023851952573750168,0.00015719355724286288,-0.0016292245127260685,-0.0003281883546151221,-9.816995620727539,0,0,25.375102996826172,1,1,760,799,1768451514.75971,4.059209,4.059209,RCOU,5824336,1500,1500,1000,1500,0,0,0,0,0,0,0,0,0,0,1768451514.7797022,4.079201
IMU,5824336,1,9.739877714309841e-05,3.890535663231276e-05,0.00014820635260548443,-0.0005809621070511639,-0.002340487437322736,-9.817033767700195,0,0,25.376413345336914,1,1,760,799,1768451514.7797022,4.079201,4.079200999999999,RCOU,5824336,1500,1500,1000,1500,0,0,0,0,0,0,0,0,0,0,1768451514.7797022,4.079201
IMU,5844328,1,0.00024112884420901537,-1.027176040224731e-05,6.861830479465425e-05,-0.0025597948115319014,-0.004365166183561087,-9.819791793823242,0,0,25.37771987915039,1,1,760,799,1768451514.799694,4.099193,4.099193,RCOU,5824336,1500,1500,1000,1500,0,0,0,0,0,0,0,0,0,0,1768451514.7797022,4.079201
IMU,5864320,1,0.00016087644326034933,0.00014829593419563025,0.0002141568111255765,-0.00239357678219676,-0.0011337230680510402,-9.81815242767334,0,0,25.379030227661133,1,1,760,799,1768451514.8196862,4.119185,4.119185,RCOU,5864320,1500,1500,1000,1500,0,0,0,0,0,0,0,0,0,0,1768451514.8196862,4.119185
IMU,5884312,1,0.00011329375411150977,0.00017454399494454265,9.559121099300683e-05,-0.0010756622068583965,-0.0018430257914587855,-9.81658935546875,0,0,25.38033676147461,1,1,760,799,1768451514.839678,4.139177,4.139177,RCOU,5864320,1500,1500,1000,1500,0,0,0,0,0,0,0,0,0,0,1768451514.8196862,4.119185
IMU,5905137,1,1.0449414730828721e-05,6.237367051653564e-05,7.4910290095431264e-06,-0.00014529524196404964,-0.0017681391909718513,-9.81849479675293,0,0,25.381776809692383,1,1,760,799,1768451514.8605032,4.160002,4.1600019999999995,RCOU,5905137,1500,1500,1000,1500,0,0,0,0,0,0,0,0,0,0,1768451514.8605032,4.160002
IMU,5925129,1,8.882498514140025e-05,0.0004447404353413731,2.1943509636912495e-05,-0.0011880277888849378,-0.0031078786123543978,-9.816068649291992,0,0,25.38308334350586,1,1,760,799,1768451514.880495,4.179994,4.179994,RCOU,5905137,1500,1500,1000,1500,0,0,0,0,0,0,0,0,0,0,1768451514.8605032,4.160002
IMU,5945121,1,0.00019876545411534607,0.00031008978839963675,-3.544691207935102e-05,-0.0006596019957214594,-0.0017106997547671199,-9.815099716186523,0,0,25.38439178466797,1,1,760,799,1768451514.9004872,4.199986,4.199986,RCOU,5945121,1500,1500,1000,1500,0,0,0,0,0,0,0,0,0,0,1768451514.9004872,4.199986
IMU,5965113,1,0.00022906617959961295,9.298348231823184e-06,-3.398392800590955e-05,0.000456135137937963,-0.0016123366076499224,-9.816801071166992,0,0,25.385700225830078,1,1,760,799,1768451514.920479,4.219978,4.219978,RCOU,5985105,1500,1500,1000,1500,0,0,0,0,0,0,0,0,0,0,1768451514.9404712,4.23997
IMU,5985105,1,-5.204000262892805e-05,1.66738209372852e-06,0.00011489955068100244,-0.0026158324908465147,-0.0007801085594110191,-9.818087577819824,0,0,25.387006759643555,1,1,760,799,1768451514.9404712,4.23997,4.23997,RCOU,5985105,1500,1500,1000,1500,0,0,0,0,0,0,0,0,0,0,1768451514.9404712,4.23997
IMU,6005097,0,0.00010311025835108012,0.00018252970767207444,0.00013320858124643564,-0.0013974668690934777,-0.0005453497287817299,-9.817988395690918,0,0,25.388315200805664,1,1,999,999,1768451514.960463,4.259962,4.259962,RCOU,5985105,1500,1500,1000,1500,0,0,0,0,0,0,0,0,0,0,1768451514.9404712,4.23997
IMU,6025089,0,0.00011429336154833436,0.00016706029418855906,0.00010709894559113309,-0.0009481504093855619,-0.0007299004937522113,-9.817346572875977,0,0,25.38962173461914,1,1,999,999,1768451514.9804552,4.279954,4.279954,RCOU,6025089,1500,1500,1000,1500,0,0,0,0,0,0,0,0,0,0,1768451514.9804552,4.279954
IMU,6045081,0,0.00010095621109940112,2.2244505089474842e-05,0.00011475173232611269,-0.001894317101687193,-0.0010915036546066403,-9.816360473632812,0,0,25.390928268432617,1,1,999,999,1768451515.000447,4.299946,4.299945999999999,RCOU,6025089,1500,1500,1000,1500,0,0,0,0,0,0,0,0,0,0,1768451514.9804552,4.279954
IMU,6065073,0,0.0001072117083822377,8.068879833444953e-05,0.0001581217220518738,0.00013162520190235227,-0.0027942084707319736,-9.817205429077148,0,0,25.392234802246094,1,1,999,999,1768451515.0204391,4.319938,4.319938,RCOU,6065073,1500,1500,1000,1500,0,0,0,0,0,0,0,0,0,0,1768451515.0204391,4.319938
IMU,6085065,0,0.00011074684880441055,5.1884686399716884e-05,7.413469575112686e-05,-0.0002229944075224921,-0.0005578941199928522,-9.817590713500977,0,0,25.393543243408203,1,1,999,999,1768451515.040431,4.33993,4.33993,RCOU,6065073,1500,1500,1000,1500,0,0,0,0,0,0,0,0,0,0,1768451515.0204391,4.319938
IMU,6105057,0,4.6078352170297876e-05,9.401340503245592e-05,0.00012887653429061174,-0.0019173921318724751,0.00016098788182716817,-9.818111419677734,0,0,25.39484977722168,1,1,999,999,1768451515.0604231,4.359922,4.359922,RCOU,6105057,1500,1500,1000,1500,0,0,0,0,0,0,0,0,0,0,1768451515.0604231,4.359922
IMU,6125049,0,5.6523189414292574e-05,4.1271527152275667e-05,0.00012162850907770917,-0.001430109958164394,3.6038283724337816e-05,-9.817005157470703,0,0,25.39615821838379,1,1,999,999,1768451515.0804152,4.379914,4.379913999999999,RCOU,6105057,1500,1500,1000,1500,0,0,0,0,0,0,0,0,0,0,1768451515.0604231,4.359922
IMU,6145041,1,3.278973963460885e-05,0.00032867753179743886,0.00023828620032873005,-0.0007352615939453244,-0.00022621976677328348,-9.820942878723145,0,0,25.397464752197266,1,1,760,799,1768451515.1004071,4.399906,4.399906,RCOU,6145041,1500,1500,1000,1500,0,0,0,0,0,0,0,0,0,0,1768451515.1004071,4.399906
IMU,6165033,1,0.00013905928062740713,2.6737357984529808e-05,0.00023403872910421342,-0.00021651673887390643,-0.0035190735943615437,-9.817787170410156,0,0,25.398771286010742,1,1,760,799,1768451515.1203992,4.419898,4.419898,RCOU,6145041,1500,1500,1000,1500,0,0,0,0,0,0,0,0,0,0,1768451515.1004071,4.399906
IMU,6185025,1,7.203051791293547e-05,8.755882299738005e-05,-0.00010767468484118581,-0.0029072051402181387,-0.0035150391049683094,-9.818203926086426,0,0,25.40007781982422,1,1,760,799,1768451515.140391,4.43989,4.43989,RCOU,6185025,1500,1500,1000,1500,0,0,0,0,0,0,0,0,0,0,1768451515.140391,4.43989
IMU,6205017,1,0.0002932460338342935,-3.2181796996155754e-05,-0.0001238809054484591,-0.002245834330096841,-0.001684110495261848,-9.81502628326416,0,0,25.401384353637695,1,1,760,799,1768451515.1603832,4.459882,4.4598819999999995,RCOU,6185025,1500,1500,1000,1500,0,0,0,0,0,0,0,0,0,0,1768451515.140391,4.43989
IMU,6225009,0,5.40230430488009e-05,0.00010904421651503071,-9.104554919758812e-06,0.0002011206524912268,-0.002509690122678876,-9.817581176757812,0,0,25.402690887451172,1,1,1000,1000,1768451515.180375,4.479874,4.479874,RCOU,6225009,1500,1500,1000,1500,0,0,0,0,0,0,0,0,0,0,1768451515.180375,4.479874
IMU,6245001,0,6.206602847669274e-05,3.474521145108156e-05,8.145692117977887e-05,-0.0012948407093062997,-0.0011478766100481153,-9.817643165588379,0,0,25.40399742126465,1,1,1000,1000,1768451515.2003672,4.499866,4.499866,RCOU,6225009,1500,1500,1000,1500,0,0,0,0,0,0,0,0,0,0,1768451515.180375,4.479874
IMU,6264993,1,0.0002802488743327558,-4.64722397737205e-05,0.00014312498387880623,0.001116744359023869,0.0008371947915293276,-9.818121910095215,0,0,25.405237197875977,1,1,760,799,1768451515.220359,4.519858,4.519858,RCOU,6264993,1500,1500,1000,1500,0,0,0,0,0,0,0,0,0,0,1768451515.220359,4.519858
IMU,6284985,1,8.475007052766159e-05,9.319027412857395e-06,0.00012955462443642318,-0.0027173960115760565,-0.0002276351151522249,-9.816272735595703,0,0,25.406543731689453,1,1,760,799,1768451515.2403512,4.53985,4.5398499999999995,RCOU,6264993,1500,1500,1000,1500,0,0,0,0,0,0,0,0,0,0,1768451515.220359,4.519858
IMU,6304977,1,-1.9076906028203666e-06,0.00014237730647437274,0.00014442915562540293,-0.0018363774288445711,-0.003220150712877512,-9.81910514831543,0,0,25.40785026550293,1,1,760,799,1768451515.260343,4.559842,4.559842,RCOU,6304977,1500,1500,1000,1500,0,0,0,0,0,0,0,0,0,0,1768451515.260343,4.559842
IMU,6324969,1,1.5050374713609926e-05,0.00024822785053402185,0.0002447480510454625,-0.0021581556648015976,-0.0013045362429693341,-9.81747817993164,0,0,25.409156799316406,1,1,760,799,1768451515.2803352,4.579834,4.579834,RCOU,6304977,1500,1500,1000,1500,0,0,0,0,0,0,0,0,0,0,1768451515.260343,4.559842
IMU,6344961,1,-4.423627251526341e-05,-0.00018403599096927792,0.00036634408752433956,-0.001359445508569479,-0.003192397765815258,-9.818368911743164,0,0,25.410463333129883,1,1,760,799,1768451515.300327,4.599826,4.599826,RCOU,6344961,1500,1500,1000,1500,0,0,0,0,0,0,0,0,0,0,1768451515.300327,4.599826
IMU,6364953,1,0.00026477326173335314,0.0001608761231182143,-0.00012534917914308608,-0.0014128114562481642,-0.003771047806367278,-9.818709373474121,0,0,25.41176986694336,1,1,760,799,1768451515.3203192,4.619818,4.6198179999999995,RCOU,6344961,1500,1500,1000,1500,0,0,0,0,0,0,0,0,0,0,1768451515.300327,4.599826
IMU,6384945,1,-5.4807827837066725e-05,0.00029199852724559605,7.962256495375186e-05,-0.0013173826737329364,-0.0028725299052894115,-9.819090843200684,0,0,25.413074493408203,1,1,760,799,1768451515.340311,4.63981,4.63981,RCOU,6384945,1500,1500,1000,1500,0,0,0,0,0,0,0,0,0,0,1768451515.340311,4.63981
IMU,6404937,1,-0.00011205809278180823,0.00016953973681665957,-0.00012937540304847062,-0.0004057132173329592,-0.00221615144982934,-9.817451477050781,0,0,25.414379119873047,1,1,760,799,1768451515.3603032,4.659802,4.659802,RCOU,6384945,1500,1500,1000,1500,0,0,0,0,0,0,0,0,0,0,1768451515.340311,4.63981
IMU,6424929,1,-9.480003791395575e-05,-3.300449316157028e-05,-7.283955346792936e-05,-0.0018553566187620163,-0.0013908720575273037,-9.818942070007324,0,0,25.415685653686523,1,1,760,799,1768451515.380295,4.679794,4.679794,RCOU,6424929,1500,1500,1000,1500,0,0,0,0,0,0,0,0,0,0,1768451515.380295,4.679794
IMU,6444921,1,0.00018116229330189526,4.174547575530596e-05,4.260540663381107e-06,-0.0012459568679332733,-0.002780280774459243,-9.817828178405762,0,0,25.4169921875,1,1,760,799,1768451515.4002872,4.699786,4.699786,RCOU,6424929,1500,1500,1000,1500,0,0,0,0,0,0,0,0,0,0,1768451515.380295,4.679794
IMU,6464913,1,2.162717646569945e-05,0.0001673092192504555,-0.00011411626474000514,0.00024242125800810754,-0.0008751333225518465,-9.816285133361816,0,0,25.418296813964844,1,1,760,799,1768451515.420279,4.719778,4.719778,RCOU,6464913,1500,1500,1000,1500,0,0,0,0,0,0,0,0,0,0,1768451515.420279,4.719778
IMU,6484905,1,-5.457631414174102e-05,0.0002671195543371141,-5.9979902289342135e-05,0.0007032881258055568,0.0015842504799365997,-9.814353942871094,0,0,25.419601440429688,1,1,760,799,1768451515.4402711,4.73977,4.73977,RCOU,6504897,1500,1500,1000,1500,0,0,0,0,0,0,0,0,0,0,1768451515.4602633,4.759762
IMU,6504897,1,5.500601037056185e-05,-0.00014237980940379202,0.00011497864034026861,-6.77273201290518e-05,-0.0030377560760825872,-9.815133094787598,0,0,25.420907974243164,1,1,760,799,1768451515.4602633,4.759762,4.759761999999999,RCOU,6504897,1500,1500,1000,1500,0,0,0,0,0,0,0,0,0,0,1768451515.4602633,4.759762
IMU,6524889,1,4.712261579697952e-05,4.86288481624797e-05,1.0273910447722301e-05,-0.002446696162223816,-0.0019117568153887987,-9.818511962890625,0,0,25.422212600708008,1,1,760,799,1768451515.4802551,4.779754,4.779754,RCOU,6504897,1500,1500,1000,1500,0,0,0,0,0,0,0,0,0,0,1768451515.4602633,4.759762
IMU,6544881,1,0.00012822530698031187,0.00018358317902311683,4.6447468776023015e-05,-0.00258325575850904,-0.00280554941855371,-9.818388938903809,0,0,25.423519134521484,1,1,760,799,1768451515.5002472,4.799746,4.799746,RCOU,6544881,1500,1500,1000,1500,0,0,0,0,0,0,0,0,0,0,1768451515.5002472,4.799746
IMU,6564873,1,0.0001638895191717893,0.00012228758714627475,0.000218194501940161,-0.0005399021320044994,-0.0016385844210162759,-9.816776275634766,0,0,25.424823760986328,1,1,760,799,1768451515.520239,4.819738,4.819738,RCOU,6584865,1500,1500,1000,1500,0,0,0,0,0,0,0,0,0,0,1768451515.5402312,4.83973
IMU,6584865,0,0.00010979093349305913,6.330909673124552e-05,7.435942825395614e-05,-0.001846140599809587,-1.2022475857520476e-05,-9.817619323730469,0,0,25.426128387451172,1,1,1000,1000,1768451515.5402312,4.83973,4.839729999999999,RCOU,6584865,1500,1500,1000,1500,0,0,0,0,0,0,0,0,0,0,1768451515.5402312,4.83973
IMU,6604857,0,6.738165393471718e-05,6.748181476723403e-05,9.00611121323891e-05,-0.001497607328929007,-9.046428021974862e-05,-9.817327499389648,0,0,25.427433013916016,1,1,1000,1000,1768451515.560223,4.859722,4.859722,RCOU,6584865,1500,1500,1000,1500,0,0,0,0,0,0,0,0,0,0,1768451515.5402312,4.83973
IMU,6624849,0,7.932590960990638e-05,0.00010206314618699253,6.414484232664108e-05,-0.0004904713132418692,-0.001064540701918304,-9.818154335021973,0,0,25.42873764038086,1,1,1000,1000,1768451515.5802152,4.879714,4.879714,RCOU,6624849,1500,1500,1000,1500,0,0,0,0,0,0,0,0,0,0,1768451515.5802152,4.879714
IMU,6644841,0,0.00012818281538784504,7.249777991091833e-05,0.00011523218563525006,-0.0007248228066600859,-0.0012514358386397362,-9.817479133605957,0,0,25.430042266845703,1,1,1000,1000,1768451515.600207,4.899706,4.899706,RCOU,6664833,1500,1500,1000,1500,0,0,0,0,0,0,0,0,0,0,1768451515.6201992,4.919698
IMU,6664833,0,8.234003325924277e-05,5.4184627515496686e-05,3.940848182537593e-05,-0.0008467279840260744,-0.000356799631845206,-9.816839218139648,0,0,25.431346893310547,1,1,1000,1000,1768451515.6201992,4.919698,4.9196979999999995,RCOU,6664833,1500,1500,1000,1500,0,0,0,0,0,0,0,0,0,0,1768451515.6201992,4.919698
IMU,6684825,0,0.00012516972492448986,6.842010043328628e-05,2.062808744085487e-05,-0.0013787540374323726,0.0003250605659559369,-9.815044403076172,0,0,25.43265151977539,1,1,1000,1000,1768451515.640191,4.93969,4.93969,RCOU,6664833,1500,1500,1000,1500,0,0,0,0,0,0,0,0,0,0,1768451515.6201992,4.919698
IMU,6704817,0,0.00013910001143813133,0.0001022527867462486,0.00010392200783826411,0.0008577517000958323,-0.000691849971190095,-9.816505432128906,0,0,25.433956146240234,1,1,1000,1000,1768451515.6601832,4.959682,4.959682,RCOU,6704817,1500,1500,1000,1500,0,0,0,0,0,0,0,0,0,0,1768451515.6601832,4.959682
IMU,6724809,0,7.023930083960295e-05,2.1662159269908443e-05,5.638128277496435e-05,0.00019717373652383685,-0.0018424090230837464,-9.816985130310059,0,0,25.435260772705078,1,1,1000,1000,1768451515.680175,4.979674,4.979674,RCOU,6744801,1500,1500,1000,1500,0,0,0,0,0,0,0,0,0,0,1768451515.7001672,4.999666
IMU,6744801,0,0.00014029804151505232,0.00010609941091388464,6.732426845701411e-05,-0.0010108521673828363,-0.0005215234123170376,-9.817809104919434,0,0,25.436565399169922,1,1,1000,1000,1768451515.7001672,4.999666,4.9996659999999995,RCOU,6744801,1500,1500,1000,1500,0,0,0,0,0,0,0,0,0,0,1768451515.7001672,4.999666
IMU,6764793,0,0.00012335162318777293,9.871061774902046e-05,7.635805377503857e-05,-0.0016358152497559786,-0.0013001342304050922,-9.816924095153809,0,0,25.437868118286133,1,1,1000,1000,1768451515.720159,5.019658,5.019658,RCOU,6744801,1500,1500,1000,1500,0,0,0,0,0,0,0,0,0,0,1768451515.7001672,4.999666
IMU,6784785,0,2.7418125682743266e-05,0.00012031881487928331,2.7305657567922026e-05,-0.0001357067667413503,-0.0008178114658221602,-9.81791877746582,0,0,25.439172744750977,1,1,1000,1000,1768451515.7401512,5.03965,5.03965,RCOU,6784785,1500,1500,1000,1500,0,0,0,0,0,0,0,0,0,0,1768451515.7401512,5.03965
IMU,6804777,1,0.00012564787175506353,3.3937649277504534e-05,6.909949297551066e-05,-0.0025186112616211176,-0.0009780600666999817,-9.817728042602539,0,0,25.44047737121582,1,1,760,799,1768451515.760143,5.059642,5.059642,RCOU,6824769,1500,1500,1000,1500,0,0,0,0,0,0,0,0,0,0,1768451515.7801352,5.079634
IMU,6824769,1,9.153493010671809e-05,3.6347795685287565e-05,0.00013645530270878226,-0.0029015415348112583,-0.0036262276116758585,-9.817137718200684,0,0,25.441781997680664,1,1,760,799,1768451515.7801352,5.079634,5.0796339999999995,RCOU,6824769,1500,1500,1000,1500,0,0,0,0,0,0,0,0,0,0,1768451515.7801352,5.079634
IMU,6844761,1,0.00010955674952128902,8.124529995257035e-05,0.00024259768542833626,0.0007171028410084546,-0.002231876365840435,-9.816729545593262,0,0,25.443084716796875,1,1,760,799,1768451515.800127,5.099626,5.099626,RCOU,6824769,1500,1500,1000,1500,0,0,0,0,0,0,0,0,0,0,1768451515.7801352,5.079634
IMU,6864753,0,2.6233085009153e-05,4.2523181036813185e-05,5.935881199548021e-05,-0.001398849068209529,-0.0017533693462610245,-9.818784713745117,0,0,25.44438934326172,1,1,1000,1000,1768451515.8201191,5.119618,5.119618,RCOU,6864753,1500,1500,1000,1500,0,0,0,0,0,0,0,0,0,0,1768451515.8201191,5.119618
IMU,6884745,1,0.00018993632693309337,0.0002796381595544517,-8.143190643750131e-05,-0.0042121997103095055,-0.0019044834189116955,-9.815691947937012,0,0,25.44569206237793,1,1,760,799,1768451515.840111,5.13961,5.139609999999999,RCOU,6864753,1500,1500,1000,1500,0,0,0,0,0,0,0,0,0,0,1768451515.8201191,5.119618
IMU,6904737,0,7.477099279640242e-05,9.2778165708296e-05,8.033293852349743e-05,-0.0015042343875393271,-0.0018525171326473355,-9.817499160766602,0,0,25.44699478149414,1,1,1000,1000,1768451515.8601031,5.159602,5.159602,RCOU,6904737,1500,1500,1000,1500,0,0,0,0,0,0,0,0,0,0,1768451515.8601031,5.159602
IMU,6924729,0,6.394970114342868e-05,0.0001010088381008245,7.231471681734547e-05,-0.0013284571468830109,-0.0008266873192042112,-9.817329406738281,0,0,25.448299407958984,1,1,1000,1000,1768451515.8800952,5.179594,5.179594,RCOU,6904737,1500,1500,1000,1500,0,0,0,0,0,0,0,0,0,0,1768451515.8601031,5.159602
IMU,6944721,0,3.5271106753498316e-05,0.0001251863723155111,0.00011365947284502909,-0.0018791493494063616,-0.001970523502677679,-9.817683219909668,0,0,25.449602127075195,1,1,1000,1000,1768451515.900087,5.199586,5.199586,RCOU,6944721,1500,1500,1000,1500,0,0,0,0,0,0,0,0,0,0,1768451515.900087,5.199586
IMU,6964713,1,0.00026339839678257704,-9.047895582625642e-05,0.00016703955770935863,-0.0022579836659133434,-0.0024248147383332253,-9.813492774963379,0,0,25.450904846191406,1,1,760,799,1768451515.9200792,5.219578,5.219577999999999,RCOU,6944721,1500,1500,1000,1500,0,0,0,0,0,0,0,0,0,0,1768451515.900087,5.199586
IMU,6984705,0,4.942432860843837e-05,8.071013871813193e-05,0.00011067723971791565,-0.0007345995982177556,-0.0011249958770349622,-9.81734561920166,0,0,25.45220947265625,1,1,1000,1000,1768451515.940071,5.23957,5.23957,RCOU,6984705,1500,1500,1000,1500,0,0,0,0,0,0,0,0,0,0,1768451515.940071,5.23957
IMU,7004697,1,0.000137299342895858,-4.365984204923734e-05,0.00012405699817463756,0.0010086119873449206,-0.0003836952964775264,-9.81580638885498,0,0,25.45351219177246,1,1,760,799,1768451515.9600632,5.259562,5.259562,RCOU,6984705,1500,1500,1000,1500,0,0,0,0,0,0,0,0,0,0,1768451515.940071,5.23957
IMU,7024689,1,-0.0002809232973959297,-5.876667637494393e-05,0.000176274188561365,0.0010222429409623146,-0.001668828772380948,-9.818561553955078,0,0,25.454814910888672,1,1,760,799,1768451515.980055,5.279554,5.279554,RCOU,7024689,1500,1500,1000,1500,0,0,0,0,0,0,0,0,0,0,1768451515.980055,5.279554
IMU,7044681,0,0.00010393594129709527,3.105869109276682e-05,0.00016490506823174655,-0.0004976566415280104,-0.001893705572001636,-9.818073272705078,0,0,25.456119537353516,1,1,1000,1000,1768451516.0000472,5.299546,5.299545999999999,RCOU,7024689,1500,1500,1000,1500,0,0,0,0,0,0,0,0,0,0,1768451515.980055,5.279554
IMU,7064673,0,0.0001633910578675568,6.76211275276728e-05,0.00011279618775006384,-0.00018881123105529696,-0.0012498116120696068,-9.81774616241455,0,0,25.457422256469727,1,1,1000,1000,1768451516.020039,5.319538,5.319538,RCOU,7064673,1500,1500,1000,1500,0,0,0,0,0,0,0,0,0,0,1768451516.020039,5.319538
IMU,7084665,0,0.0001247791515197605,9.69943284871988e-05,0.00012131286348449066,-0.000506553624290973,-0.0012670019641518593,-9.817298889160156,0,0,25.458724975585938,1,1,1000,1000,1768451516.0400312,5.33953,5.33953,RCOU,7064673,1500,1500,1000,1500,0,0,0,0,0,0,0,0,0,0,1768451516.020039,5.319538
IMU,7104657,0,0.0001317887508776039,0.00015466396871488541,0.00015221134526655078,-0.0007871515117585659,0.0006443678867071867,-9.817688941955566,0,0,25.46002769470215,1,1,1000,1000,1768451516.060023,5.359522,5.359522,RCOU,7104657,1500,1500,1000,1500,0,0,0,0,0,0,0,0,0,0,1768451516.060023,5.359522
IMU,7124649,0,0.00011142135917907581,0.0001565264683449641,7.074281165841967e-05,-0.0010763050522655249,-0.0011261493200436234,-9.817785263061523,0,0,25.461328506469727,1,1,1000,1000,1768451516.0800152,5.379514,5.3795139999999995,RCOU,7104657,1500,1500,1000,1500,0,0,0,0,0,0,0,0,0,0,1768451516.060023,5.359522
IMU,7144641,0,9.417459659744054e-05,0.0001059155838447623,7.530794391641393e-05,-0.0014344287337735295,-0.000906854635104537,-9.817743301391602,0,0,25.462631225585938,1,1,999,999,1768451516.100007,5.399506,5.399506,RCOU,7144641,1500,1500,1000,1500,0,0,0,0,0,0,0,0,0,0,1768451516.100007,5.399506
IMU,7164633,0,0.0001825774525059387,2.848847725545056e-05,9.71786939771846e-05,-0.00152615609113127,-0.0015061120502650738,-9.816577911376953,0,0,25.46393394470215,1,1,999,999,1768451516.1199992,5.419498,5.419498,RCOU,7144641,1500,1500,1000,1500,0,0,0,0,0,0,0,0,0,0,1768451516.100007,5.399506
IMU,7184625,0,8.498349052388221e-05,7.411022670567036e-05,0.0001202988569275476,-0.001230696914717555,-0.000840631895698607,-9.818568229675293,0,0,25.46523666381836,1,1,999,999,1768451516.139991,5.43949,5.43949,RCOU,7184625,1500,1500,1000,1500,0,0,0,0,0,0,0,0,0,0,1768451516.139991,5.43949
IMU,7204617,0,5.231906834524125e-05,6.843339360784739e-05,7.695084059378132e-05,-0.0007776087149977684,-0.0004998535150662065,-9.818366050720215,0,0,25.46653938293457,1,1,999,999,1768451516.1599832,5.459482,5.4594819999999995,RCOU,7184625,1500,1500,1000,1500,0,0,0,0,0,0,0,0,0,0,1768451516.139991,5.43949
IMU,7224609,0,5.112919825478457e-05,8.78334540175274e-05,5.637437061523087e-05,-0.0006783202989026904,-0.0015233043814077973,-9.817659378051758,0,0,25.46784210205078,1,1,999,999,1768451516.179975,5.479474,5.479474,RCOU,7224609,1500,1500,1000,1500,0,0,0,0,0,0,0,0,0,0,1768451516.179975,5.479474
IMU,7244601,0,0.0001453216391382739,0.00012186213280074298,0.00013873241550754756,-0.0015561517793685198,-0.0011201670859009027,-9.817144393920898,0,0,25.46914291381836,1,1,999,999,1768451516.1999671,5.499466,5.499466,RCOU,7264593,1500,1500,1000,1500,0,0,0,0,0,0,0,0,0,0,1768451516.219959,5.519458
IMU,7264593,0,2.532079270167742e-05,0.00016687062452547252,0.00013892738206777722,-0.0004555842315312475,-0.0008868942968547344,-9.816987991333008,0,0,25.47044563293457,1,1,999,999,1768451516.219959,5.519458,5.519457999999999,RCOU,7264593,1500,1500,1000,1500,0,0,0,0,0,0,0,0,0,0,1768451516.219959,5.519458
IMU,7284585,0,5.676562795997597e-05,0.0001449693663744256,1.2943446563440375e-05,-0.0013608409790322185,-0.001019362243823707,-9.817033767700195,0,0,25.47174644470215,1,1,999,999,1768451516.2399511,5.53945,5.5394499999999995,RCOU,7264593,1500,1500,1000,1500,0,0,0,0,0,0,0,0,0,0,1768451516.219959,5.519458
IMU,7304577,0,9.100944589590654e-05,0.00010649745672708377,7.478894985979423e-05,-0.0014051422476768494,-0.00048217782750725746,-9.817778587341309,0,0,25.47304916381836,1,1,999,999,1768451516.2599432,5.559442,5.559442,RCOU,7304577,1500,1500,1000,1500,0,0,0,0,0,0,0,0,0,0,1768451516.2599432,5.559442
IMU,7324569,0,0.0001442331267753616,0.00013270991621538997,6.607577233808115e-05,-0.0014521169941872358,-0.0006836018292233348,-9.81663703918457,0,0,25.474349975585938,1,1,999,999,1768451516.2799351,5.579434,5.579434,RCOU,7344561,1500,1500,1000,1500,0,0,0,0,0,0,0,0,0,0,1768451516.2999272,5.599426
IMU,7344561,0,9.957788279280066e-05,8.557526598451659e-05,0.00017232800018973649,-0.0009474724065512419,-0.00022509231348522007,-9.817486763000488,0,0,25.47565269470215,1,1,999,999,1768451516.2999272,5.599426,5.599425999999999,RCOU,7344561,1500,1500,1000,1500,0,0,0,0,0,0,0,0,0,0,1768451516.2999272,5.599426
IMU,7364553,0,0.00011688892845995724,0.0001090842270059511,0.00014613554230891168,-0.00047048344276845455,-0.0014743092469871044,-9.818395614624023,0,0,25.476953506469727,1,1,999,999,1768451516.319919,5.619418,5.619418,RCOU,7344561,1500,1500,1000,1500,0,0,0,0,0,0,0,0,0,0,1768451516.2999272,5.599426
IMU,7384545,0,9.109953680308536e-05,0.00011055529466830194,0.00011448649456724524,-0.0015448066405951977,-0.0013597041834145784,-9.816750526428223,0,0,25.478256225585938,1,1,999,999,1768451516.3399112,5.63941,5.63941,RCOU,7384545,1500,1500,1000,1500,0,0,0,0,0,0,0,0,0,0,1768451516.3399112,5.63941
IMU,7404537,0,0.00014061928959563375,5.5539778259117156e-05,0.00013245592708699405,-0.000507313059642911,-0.0009153592982329428,-9.816681861877441,0,0,25.479557037353516,1,1,999,999,1768451516.359903,5.659402,5.659402,RCOU,7424529,1500,1500,1000,1500,0,0,0,0,0,0,0,0,0,0,1768451516.3798952,5.679394
IMU,7424529,1,0.00010836900037247688,0.00019213724590372294,-0.00020190638315398246,-0.0007832979899831116,-0.0012022810988128185,-9.81911849975586,0,0,25.480792999267578,1,1,760,799,1768451516.3798952,5.679394,5.679393999999999,RCOU,7424529,1500,1500,1000,1500,0,0,0,0,0,0,0,0,0,0,1768451516.3798952,5.679394
IMU,7444521,1,6.920876330696046e-06,0.00023542274720966816,2.7102092644781806e-05,-0.002957650925964117,-0.0031997631303966045,-9.818324089050293,0,0,25.482093811035156,1,1,760,799,1768451516.399887,5.699386,5.699386,RCOU,7424529,1500,1500,1000,1500,0,0,0,0,0,0,0,0,0,0,1768451516.3798952,5.679394
IMU,7464513,1,-9.999789472203702e-05,-0.00014188433124218136,0.00010777213901747018,-0.00030120956944301724,-0.0010330543154850602,-9.820001602172852,0,0,25.483396530151367,1,1,760,799,1768451516.4198792,5.719378,5.719378,RCOU,7464513,1500,1500,1000,1500,0,0,0,0,0,0,0,0,0,0,1768451516.4198792,5.719378
IMU,7484505,1,0.0003818058758042753,0.00026199338026344776,0.00016474304720759392,0.0019846251234412193,-0.002996038645505905,-9.81672477722168,0,0,25.484697341918945,1,1,760,799,1768451516.439871,5.73937,5.73937,RCOU,7504497,1500,1500,1000,1500,0,0,0,0,0,0,0,0,0,0,1768451516.4598632,5.759362
IMU,7504497,1,0.0003590166743379086,0.00031935772858560085,7.92097271187231e-05,0.0012227019760757685,-0.002977509517222643,-9.817138671875,0,0,25.48599624633789,1,1,760,799,1768451516.4598632,5.759362,5.759361999999999,RCOU,7504497,1500,1500,1000,1500,0,0,0,0,0,0,0,0,0,0,1768451516.4598632,5.759362
IMU,7524489,1,7.99191984697245e-05,0.00013475898595061153,-7.940741488710046e-05,0.0005195374833419919,-0.0016878482419997454,-9.81686782836914,0,0,25.4872989654541,1,1,760,799,1768451516.479855,5.779354,5.779354,RCOU,7504497,1500,1500,1000,1500,0,0,0,0,0,0,0,0,0,0,1768451516.4598632,5.759362
IMU,7544481,1,-0.00013968283019494265,0.00015565697685815394,0.0001713956444291398,-0.004240510053932667,-0.0022954666055738926,-9.813913345336914,0,0,25.48859977722168,1,1,760,799,1768451516.4998472,5.799346,5.799346,RCOU,7544481,1500,1500,1000,1500,0,0,0,0,0,0,0,0,0,0,1768451516.4998472,5.799346
IMU,7564473,1,0.0002901070984080434,0.00019427956431172788,0.00026582536520436406,-0.0022867759689688683,0.0005159322172403336,-9.818553924560547,0,0,25.489900588989258,1,1,760,799,1768451516.519839,5.819338,5.819338,RCOU,7584465,1500,1500,1000,1500,0,0,0,0,0,0,0,0,0,0,1768451516.5398312,5.83933
IMU,7584465,1,0.0002480540133547038,6.325256981654093e-05,0.00021671588183380663,-0.0016076131723821163,-0.00144343008287251,-9.817415237426758,0,0,25.491201400756836,1,1,760,799,1768451516.5398312,5.83933,5.8393299999999995,RCOU,7584465,1500,1500,1000,1500,0,0,0,0,0,0,0,0,0,0,1768451516.5398312,5.83933
IMU,7604457,1,0.0001698437990853563,5.333534500095993e-05,-0.000140106218168512,-0.0016338330460712314,0.0003924067714251578,-9.818305015563965,0,0,25.49250030517578,1,1,760,799,1768451516.559823,5.859322,5.859322,RCOU,7584465,1500,1500,1000,1500,0,0,0,0,0,0,0,0,0,0,1768451516.5398312,5.83933
IMU,7624449,1,4.9366346502210945e-05,0.00020064861746504903,0.0001519884099252522,-0.001953018014319241,0.00065496691968292,-9.816864013671875,0,0,25.49380111694336,1,1,760,799,1768451516.5798151,5.879314,5.879314,RCOU,7624449,1500,1500,1000,1500,0,0,0,0,0,0,0,0,0,0,1768451516.5798151,5.879314
IMU,7644441,1,5.178760602575494e-06,0.00015202791837509722,8.692077244631946e-05,-0.0020030175801366568,-0.0018603901844471693,-9.817427635192871,0,0,25.495101928710938,1,1,760,799,1768451516.599807,5.899306,5.899306,RCOU,7664433,1500,1500,1000,1500,0,0,0,0,0,0,0,0,0,0,1768451516.6197991,5.919298
IMU,7664433,1,2.1115497474966105e-06,0.0002593370736576617,0.00010100065992446616,-0.00011896134674316272,-0.0013049761764705181,-9.816904067993164,0,0,25.496402740478516,1,1,760,799,1768451516.6197991,5.919298,5.9192979999999995,RCOU,7664433,1500,1500,1000,1500,0,0,0,0,0,0,0,0,0,0,1768451516.6197991,5.919298
IMU,7684425,1,0.00014059316890779883,-9.98171599349007e-05,-0.00010860877227969468,-0.001605859026312828,-0.0013941996730864048,-9.817169189453125,0,0,25.49770164489746,1,1,760,799,1768451516.6397913,5.93929,5.93929,RCOU,7664433,1500,1500,1000,1500,0,0,0,0,0,0,0,0,0,0,1768451516.6197991,5.919298
IMU,7704417,1,0.0001953854225575924,0.00030177432927303016,-0.00012128797243349254,0.0008071790798567235,-0.0016826214268803596,-9.81577205657959,0,0,25.49900245666504,1,1,760,799,1768451516.6597831,5.959282,5.959282,RCOU,7704417,1500,1500,1000,1500,0,0,0,0,0,0,0,0,0,0,1768451516.6597831,5.959282
IMU,7724409,1,-4.870069824391976e-05,2.6444664399605244e-05,0.00011390883446438238,0.0007115832413546741,-0.00039379505324177444,-9.817116737365723,0,0,25.500301361083984,1,1,760,799,1768451516.6797752,5.979274,5.979273999999999,RCOU,7704417,1500,1500,1000,1500,0,0,0,0,0,0,0,0,0,0,1768451516.6597831,5.959282
IMU,7744401,1,0.00015790757606737316,0.00022793175594415516,3.8066236811573617e-06,0.000659607641864568,0.0005742536159232259,-9.818279266357422,0,0,25.501602172851562,1,1,760,799,1768451516.699767,5.999266,5.9992659999999995,RCOU,7744401,1500,1500,1000,1500,0,0,0,0,0,0,0,0,0,0,1768451516.699767,5.999266
IMU,7764393,1,0.00014927086886018515,8.134409290505573e-05,6.202683289302513e-05,0.00012789799075108021,-0.0007793864351697266,-9.819178581237793,0,0,25.50290298461914,1,1,760,799,1768451516.7197592,6.019258,6.019258,RCOU,7744401,1500,1500,1000,1500,0,0,0,0,0,0,0,0,0,0,1768451516.699767,5.999266
IMU,7784385,1,0.0003548931854311377,9.583958308212459e-05,0.00014225869381334633,-0.00020765812951140106,0.0010656609665602446,-9.816975593566895,0,0,25.50420379638672,1,1,760,799,1768451516.739751,6.03925,6.03925,RCOU,7784385,1500,1500,1000,1500,0,0,0,0,0,0,0,0,0,0,1768451516.739751,6.03925
IMU,7804377,1,0.0003686430864036083,6.814312655478716e-05,-6.936387217137963e-05,-0.000723537930753082,-0.002464496996253729,-9.817353248596191,0,0,25.505502700805664,1,1,760,799,1768451516.7597432,6.059242,6.059241999999999,RCOU,7784385,1500,1500,1000,1500,0,0,0,0,0,0,0,0,0,0,1768451516.739751,6.03925
IMU,7824369,1,0.0003057321300730109,0.00015708556747995317,9.768528980202973e-05,-0.00190606783144176,0.0018799034878611565,-9.817909240722656,0,0,25.50680160522461,1,1,760,799,1768451516.779735,6.079234,6.079234,RCOU,7824369,1500,1500,1000,1500,0,0,0,0,0,0,0,0,0,0,1768451516.779735,6.079234
IMU,7844361,1,0.00015661936777178198,0.00016784388571977615,-7.194533827714622e-05,-0.0009621733915992081,-0.0006171324639581144,-9.819051742553711,0,0,25.508100509643555,1,1,760,799,1768451516.7997272,6.099226,6.099226,RCOU,7824369,1500,1500,1000,1500,0,0,0,0,0,0,0,0,0,0,1768451516.779735,6.079234
IMU,7864353,1,3.150969496346079e-05,0.0005093492800369859,0.00019554329628590494,-0.0017905287677422166,-0.0018041273579001427,-9.815153121948242,0,0,25.5093994140625,1,1,760,799,1768451516.819719,6.119218,6.119218,RCOU,7864353,1500,1500,1000,1500,0,0,0,0,0,0,0,0,0,0,1768451516.819719,6.119218
IMU,7884345,1,9.61078330874443e-05,7.10335370968096e-05,0.0001395564031554386,0.001070536905899644,-0.002191483275964856,-9.817215919494629,0,0,25.510700225830078,1,1,760,799,1768451516.8397112,6.13921,6.139209999999999,RCOU,7864353,1500,1500,1000,1500,0,0,0,0,0,0,0,0,0,0,1768451516.819719,6.119218
IMU,7904337,1,0.00024879383272491395,0.00014838001516181976,5.9175312344450504e-05,-0.002300865948200226,-0.0020411652512848377,-9.818758010864258,0,0,25.511999130249023,1,1,760,799,1768451516.859703,6.159202,6.159202,RCOU,7904337,1500,1500,1000,1500,0,0,0,0,0,0,0,0,0,0,1768451516.859703,6.159202
IMU,7924329,1,0.00020112098718527704,0.00016583173419348896,0.00028647901490330696,-0.0002480308758094907,-0.0004999151569791138,-9.817408561706543,0,0,25.51329803466797,1,1,760,799,1768451516.8796952,6.179194,6.179194,RCOU,7904337,1500,1500,1000,1500,0,0,0,0,0,0,0,0,0,0,1768451516.859703,6.159202
IMU,7944321,1,0.00018687894043978304,0.0001815174036892131,0.0003083864285144955,-0.0019897366873919964,-0.000940252561122179,-9.817566871643066,0,0,25.514596939086914,1,1,760,799,1768451516.899687,6.199186,6.199186,RCOU,7944321,1500,1500,1000,1500,0,0,0,0,0,0,0,0,0,0,1768451516.899687,6.199186
IMU,7964313,1,-1.2817465176340193e-05,8.436648204224184e-05,0.00016581715317443013,0.0016430248506367207,-0.0008331041899509728,-9.817201614379883,0,0,25.51589584350586,1,1,760,799,1768451516.9196792,6.219178,6.219177999999999,RCOU,7944321,1500,1500,1000,1500,0,0,0,0,0,0,0,0,0,0,1768451516.899687,6.199186
IMU,7985138,1,7.444860239047557e-05,0.00016176422650460154,0.00016602558025624603,-0.0014310743426904082,0.0002324866654817015,-9.819528579711914,0,0,25.51732635498047,1,1,760,799,1768451516.940504,6.240003,6.240003,RCOU,7985138,1500,1500,1000,1500,0,0,0,0,0,0,0,0,0,0,1768451516.940504,6.240003
IMU,8005130,1,0.00016871030675247312,0.00019302291912026703,8.049440657487139e-05,0.00030980640440247953,0.0011945924488827586,-9.815872192382812,0,0,25.51862335205078,1,1,760,799,1768451516.9604962,6.259995,6.259995,RCOU,8025122,1500,1500,1000,1500,0,0,0,0,0,0,0,0,0,0,1768451516.980488,6.279987
IMU,8025122,1,0.00011338024341966957,2.0974257495254278e-05,0.00018441038264427334,0.00018882201402448118,-0.0007387705845758319,-9.817219734191895,0,0,25.519922256469727,1,1,760,799,1768451516.980488,6.279987,6.279986999999999,RCOU,8025122,1500,1500,1000,1500,0,0,0,0,0,0,0,0,0,0,1768451516.980488,6.279987
IMU,8045114,1,5.270497058518231e-05,8.69065333972685e-05,0.00022338805138133466,-0.0013609828893095255,-0.0007426471565850079,-9.816283226013184,0,0,25.521221160888672,1,1,760,799,1768451517.0004802,6.299979,6.2999789999999996,RCOU,8025122,1500,1500,1000,1500,0,0,0,0,0,0,0,0,0,0,1768451516.980488,6.279987
IMU,8065106,1,-0.00012896436965093017,0.00015018794510979205,0.00010964377725031227,0.0005302641075104475,-0.00151933659799397,-9.817699432373047,0,0,25.522520065307617,1,1,760,799,1768451517.020472,6.319971,6.319971,RCOU,8065106,1500,1500,1000,1500,0,0,0,0,0,0,0,0,0,0,1768451517.020472,6.319971
IMU,8085098,1,0.0002920703846029937,-0.00011110106424894184,6.194369780132547e-05,0.0001068209603545256,-0.0003353975189384073,-9.81897258758545,0,0,25.523818969726562,1,1,760,799,1768451517.0404642,6.339963,6.339963,RCOU,8105090,1500,1500,1000,1500,0,0,0,0,0,0,0,0,0,0,1768451517.060456,6.359955
IMU,8105090,1,0.00010539752838667482,0.00024227172252722085,0.00010496365575818345,-0.0024486235342919827,-0.0004182472184766084,-9.818426132202148,0,0,25.525115966796875,1,1,760,799,1768451517.060456,6.359955,6.359954999999999,RCOU,8105090,1500,1500,1000,1500,0,0,0,0,0,0,0,0,0,0,1768451517.060456,6.359955
IMU,8125082,1,0.00020008994033560157,0.00012859917478635907,0.00021549215307459235,-0.002591402968391776,0.000437744747614488,-9.816873550415039,0,0,25.52641487121582,1,1,760,799,1768451517.0804482,6.379947,6.379947,RCOU,8105090,1500,1500,1000,1500,0,0,0,0,0,0,0,0,0,0,1768451517.060456,6.359955
IMU,8145074,1,0.00015181791968643665,3.5377997846808285e-05,3.274044047429925e-06,-0.0023762087803333998,-0.0009063743054866791,-9.816537857055664,0,0,25.527713775634766,1,1,760,799,1768451517.10044,6.399939,6.399939,RCOU,8145074,1500,1500,1000,1500,0,0,0,0,0,0,0,0,0,0,1768451517.10044,6.399939
IMU,8165066,0,0.00013892719289287925,0.00012099807645427063,0.00012294441694393754,-0.0015994179993867874,-0.0013518673367798328,-9.817424774169922,0,0,25.529010772705078,1,1,1000,1000,1768451517.1204321,6.419931,6.419931,RCOU,8185058,1500,1500,1000,1500,0,0,0,0,0,0,0,0,0,0,1768451517.1404243,6.439923
IMU,8185058,0,0.00016601703828200698,8.146003528963774e-05,4.002541027148254e-05,-0.001256365212611854,-0.0010966812260448933,-9.816473960876465,0,0,25.530309677124023,1,1,1000,1000,1768451517.1404243,6.439923,6.439922999999999,RCOU,8185058,1500,1500,1000,1500,0,0,0,0,0,0,0,0,0,0,1768451517.1404243,6.439923
IMU,8205050,0,0.00016186651191674173,0.00015762992552481592,0.0001695340615697205,-0.0024091978557407856,-0.0010217251256108284,-9.817644119262695,0,0,25.531606674194336,1,1,1000,1000,1768451517.1604161,6.459915,6.459915,RCOU,8185058,1500,1500,1000,1500,0,0,0,0,0,0,0,0,0,0,1768451517.1404243,6.439923
IMU,8225042,0,6.593194120796397e-05,0.00019186618737876415,5.796478581032716e-05,-0.000494601612444967,-0.0006660365033894777,-9.818239212036133,0,0,25.53290557861328,1,1,1000,1000,1768451517.1804082,6.479907,6.479907,RCOU,8225042,1500,1500,1000,1500,0,0,0,0,0,0,0,0,0,0,1768451517.1804082,6.479907
IMU,8245034,0,0.00012575303844641894,0.00011782984074670821,8.582141890656203e-05,0.00101490190718323,-0.001988721080124378,-9.81640625,0,0,25.534202575683594,1,1,1000,1000,1768451517.2004,6.499899,6.499899,RCOU,8265026,1500,1500,1000,1500,0,0,0,0,0,0,0,0,0,0,1768451517.2203922,6.519891
IMU,8265026,0,0.0001447039976483211,0.00012350176984909922,0.00013425129873212427,-0.0008525366429239511,-0.0012067186180502176,-9.816557884216309,0,0,25.535499572753906,1,1,1000,1000,1768451517.2203922,6.519891,6.519890999999999,RCOU,8265026,1500,1500,1000,1500,0,0,0,0,0,0,0,0,0,0,1768451517.2203922,6.519891
IMU,8285018,0,0.00011274889402557164,0.00014573587395716459,0.0001505968248238787,-7.171937613748014e-05,-0.0014431423041969538,-9.817858695983887,0,0,25.53679847717285,1,1,1000,1000,1768451517.240384,6.539883,6.539883,RCOU,8265026,1500,1500,1000,1500,0,0,0,0,0,0,0,0,0,0,1768451517.2203922,6.519891
IMU,8305010,0,0.00012378247629385442,7.946011464809999e-05,0.0001013616711134091,-0.0025488389655947685,-0.0008147376356646419,-9.817659378051758,0,0,25.538095474243164,1,1,1000,1000,1768451517.2603762,6.559875,6.559875,RCOU,8305010,1500,1500,1000,1500,0,0,0,0,0,0,0,0,0,0,1768451517.2603762,6.559875
IMU,8325002,0,8.168063504854217e-05,0.0001472707954235375,0.00013029901310801506,-0.0014048297889530659,-0.0008935851510614157,-9.817042350769043,0,0,25.53939437866211,1,1,1000,1000,1768451517.280368,6.579867,6.579867,RCOU,8344994,1500,1500,1000,1500,0,0,0,0,0,0,0,0,0,0,1768451517.3003602,6.599859
IMU,8344994,0,9.838819096330553e-05,0.00018292260938324034,0.00017364668019581586,-0.0015962091274559498,-0.0020459480583667755,-9.817383766174316,0,0,25.540624618530273,1,1,1000,1000,1768451517.3003602,6.599859,6.5998589999999995,RCOU,8344994,1500,1500,1000,1500,0,0,0,0,0,0,0,0,0,0,1768451517.3003602,6.599859
IMU,8364986,0,4.188978346064687e-05,0.00015629093104507774,0.00010720577847678214,-0.0006891533266752958,-0.0008895996725186706,-9.818502426147461,0,0,25.54192352294922,1,1,1000,1000,1768451517.320352,6.619851,6.619851,RCOU,8344994,1500,1500,1000,1500,0,0,0,0,0,0,0,0,0,0,1768451517.3003602,6.599859
IMU,8384978,0,0.00010848738747881725,0.0001281527802348137,0.00012638479529414326,-0.0007085269317030907,-0.001448315684683621,-9.81782054901123,0,0,25.54322052001953,1,1,1000,1000,1768451517.3403442,6.639843,6.639843,RCOU,8384978,1500,1500,1000,1500,0,0,0,0,0,0,0,0,0,0,1768451517.3403442,6.639843
IMU,8404970,0,0.00014104564615990967,7.810242823325098e-05,9.21978207770735e-05,-0.00048706383677199483,-0.0013284021988511086,-9.8174467086792,0,0,25.544517517089844,1,1,1000,1000,1768451517.360336,6.659835,6.659834999999999,RCOU,8384978,1500,1500,1000,1500,0,0,0,0,0,0,0,0,0,0,1768451517.3403442,6.639843
IMU,8424962,0,0.00015426240861415863,0.0001380117901135236,6.291720637818798e-05,-0.0001545136619824916,-0.00035897866473533213,-9.817710876464844,0,0,25.545814514160156,1,1,1000,1000,1768451517.3803282,6.679827,6.6798269999999995,RCOU,8424962,1500,1500,1000,1500,0,0,0,0,0,0,0,0,0,0,1768451517.3803282,6.679827
IMU,8444954,0,5.874121416127309e-05,0.000123938822071068,0.0001531972666271031,-0.0012349269818514585,-0.0008304647053591907,-9.816720962524414,0,0,25.54711151123047,1,1,1000,1000,1768451517.40032,6.699819,6.699819,RCOU,8424962,1500,1500,1000,1500,0,0,0,0,0,0,0,0,0,0,1768451517.3803282,6.679827
IMU,8464946,0,6.358437531162053e-05,9.127613884629682e-05,8.624090696685016e-05,-0.0015878727426752448,-0.0009626401588320732,-9.816824913024902,0,0,25.54840850830078,1,1,1000,1000,1768451517.4203122,6.719811,6.719811,RCOU,8464946,1500,1500,1000,1500,0,0,0,0,0,0,0,0,0,0,1768451517.4203122,6.719811
IMU,8484938,0,0.0001557352370582521,0.00013485545059666038,8.512220665579662e-05,-0.0018178035970777273,-0.002000406850129366,-9.817008972167969,0,0,25.54970359802246,1,1,1000,1000,1768451517.440304,6.739803,6.739802999999999,RCOU,8464946,1500,1500,1000,1500,0,0,0,0,0,0,0,0,0,0,1768451517.4203122,6.719811
IMU,8504930,0,8.539035479770973e-05,0.00012006514589302242,0.00018794587231241167,-0.0015394547954201698,-0.0009066924685612321,-9.81745433807373,0,0,25.551000595092773,1,1,1000,1000,1768451517.4602962,6.759795,6.7597949999999996,RCOU,8504930,1500,1500,1000,1500,0,0,0,0,0,0,0,0,0,0,1768451517.4602962,6.759795
IMU,8524922,1,0.00027913576923310757,0.00012402253923937678,-9.89603677226114e-07,-0.0022701865527778864,-0.0019816954154521227,-9.817203521728516,0,0,25.552297592163086,1,1,760,799,1768451517.480288,6.779787,6.779787,RCOU,8504930,1500,1500,1000,1500,0,0,0,0,0,0,0,0,0,0,1768451517.4602962,6.759795
IMU,8544914,0,0.00024413345090579242,8.427189459325746e-05,7.201998232631013e-05,-0.0007529229624196887,-0.00015171176346484572,-9.818572044372559,0,0,25.553592681884766,1,1,1000,1000,1768451517.5002801,6.799779,6.799779,RCOU,8544914,1500,1500,1000,1500,0,0,0,0,0,0,0,0,0,0,1768451517.5002801,6.799779
IMU,8564906,0,0.00016133747703861445,0.00011478942178655416,7.123826071619987e-05,5.127826443640515e-05,-0.0007847523083910346,-9.816624641418457,0,0,25.554889678955078,1,1,1000,1000,1768451517.520272,6.819771,6.819770999999999,RCOU,8544914,1500,1500,1000,1500,0,0,0,0,0,0,0,0,0,0,1768451517.5002801,6.799779
IMU,8584898,0,9.775285434443504e-05,0.00010407080844743177,4.299302236177027e-05,-0.0009684289107099175,-0.0011191758094355464,-9.816256523132324,0,0,25.55618667602539,1,1,1000,1000,1768451517.5402641,6.839763,6.839763,RCOU,8584898,1500,1500,1000,1500,0,0,0,0,0,0,0,0,0,0,1768451517.5402641,6.839763
IMU,8604890,0,0.00011366377293597907,0.00014967683819122612,0.00012820411939173937,-0.0010886888485401869,-0.0016984122339636087,-9.818281173706055,0,0,25.557483673095703,1,1,1000,1000,1768451517.5602562,6.859755,6.859755,RCOU,8584898,1500,1500,1000,1500,0,0,0,0,0,0,0,0,0,0,1768451517.5402641,6.839763
IMU,8624882,1,8.619233994977549e-05,4.345530760474503e-05,4.959748184774071e-05,-0.0029285105410963297,-0.0021464526653289795,-9.815177917480469,0,0,25.558778762817383,1,1,760,799,1768451517.580248,6.879747,6.879747,RCOU,8624882,1500,1500,1000,1500,0,0,0,0,0,0,0,0,0,0,1768451517.580248,6.879747
IMU,8644874,0,0.00011176119733136147,8.975190576165915e-05,0.00011004804400727153,-0.0009791541378945112,-0.0017434069886803627,-9.818098068237305,0,0,25.560075759887695,1,1,1000,1000,1768451517.6002402,6.899739,6.899738999999999,RCOU,8624882,1500,1500,1000,1500,0,0,0,0,0,0,0,0,0,0,1768451517.580248,6.879747
IMU,8664866,0,0.0001929985301103443,0.00012000459537375718,0.00011921975965378806,-0.0009436695836484432,-0.0012499780859798193,-9.816514015197754,0,0,25.561370849609375,1,1,1000,1000,1768451517.620232,6.919731,6.919731,RCOU,8664866,1500,1500,1000,1500,0,0,0,0,0,0,0,0,0,0,1768451517.620232,6.919731
IMU,8684858,1,0.000191261395229958,0.000350365589838475,0.0002599060535430908,0.0009519077138975263,-0.0028305642772465944,-9.817046165466309,0,0,25.562665939331055,1,1,760,799,1768451517.6402242,6.939723,6.939723,RCOU,8664866,1500,1500,1000,1500,0,0,0,0,0,0,0,0,0,0,1768451517.620232,6.919731
IMU,8704850,0,1.1587540029722732e-05,0.00011533981887623668,0.00015374372014775872,-0.0009245345718227327,-0.0008401083759963512,-9.817208290100098,0,0,25.563962936401367,1,1,1000,1000,1768451517.660216,6.959715,6.959715,RCOU,8704850,1500,1500,1000,1500,0,0,0,0,0,0,0,0,0,0,1768451517.660216,6.959715
IMU,8724842,1,-2.963999031635467e-05,0.00015503005124628544,0.0002457640366628766,-0.0018695907201617956,-0.003787393681704998,-9.816954612731934,0,0,25.565258026123047,1,1,760,799,1768451517.6802082,6.979707,6.979706999999999,RCOU,8704850,1500,1500,1000,1500,0,0,0,0,0,0,0,0,0,0,1768451517.660216,6.959715
IMU,8744834,1,2.6557445380603895e-05,0.0001783122424967587,0.0002483125717844814,-6.51665250188671e-05,-0.0020993631333112717,-9.818480491638184,0,0,25.56655502319336,1,1,760,799,1768451517.7002,6.999699,6.999699,RCOU,8744834,1500,1500,1000,1500,0,0,0,0,0,0,0,0,0,0,1768451517.7002,6.999699
IMU,8764826,1,7.523770909756422e-05,0.0001376695727230981,0.00018258608179166913,-0.0007766025373712182,0.0007576225907541811,-9.81833267211914,0,0,25.56785011291504,1,1,760,799,1768451517.7201922,7.019691,7.019691,RCOU,8784818,1500,1500,1000,1500,0,0,0,0,0,0,0,0,0,0,1768451517.740184,7.039683
IMU,8784818,0,0.00012592038547154516,0.00012289037113077939,0.00010082442895509303,-0.0009528847294859588,-0.0007024613441899419,-9.817852973937988,0,0,25.56914520263672,1,1,1000,1000,1768451517.740184,7.039683,7.039682999999999,RCOU,8784818,1500,1500,1000,1500,0,0,0,0,0,0,0,0,0,0,1768451517.740184,7.039683
IMU,8804810,1,1.9032526324735954e-05,0.0001317810092587024,0.00010008703247876838,-6.950336683075875e-05,-0.0012896440457552671,-9.816953659057617,0,0,25.5704402923584,1,1,760,799,1768451517.7601762,7.059675,7.0596749999999995,RCOU,8784818,1500,1500,1000,1500,0,0,0,0,0,0,0,0,0,0,1768451517.740184,7.039683
IMU,8824802,0,9.904125181492418e-05,8.782665827311575e-05,0.0001788351801224053,-0.0003445353067945689,-0.0016606815624982119,-9.81849193572998,0,0,25.571735382080078,1,1,1000,1000,1768451517.780168,7.079667,7.079667,RCOU,8824802,1500,1500,1000,1500,0,0,0,0,0,0,0,0,0,0,1768451517.780168,7.079667
IMU,8844794,1,0.00013328225759323686,-7.22068507457152e-05,0.0002292194840265438,-0.001126046059653163,-0.0029032218735665083,-9.81783676147461,0,0,25.573030471801758,1,1,760,799,1768451517.8001602,7.099659,7.099659,RCOU,8864786,1500,1500,1000,1500,0,0,0,0,0,0,0,0,0,0,1768451517.820152,7.119651
IMU,8864786,1,0.00016059076006058604,0.00017756340093910694,9.069784573512152e-05,-0.00047722202725708485,-0.0006439986173063517,-9.816339492797852,0,0,25.574325561523438,1,1,760,799,1768451517.820152,7.119651,7.119650999999999,RCOU,8864786,1500,1500,1000,1500,0,0,0,0,0,0,0,0,0,0,1768451517.820152,7.119651
IMU,8884778,0,0.0001690718054305762,0.00016435902216471732,0.00010797583672683686,-0.0007805257919244468,-0.0021080654114484787,-9.81735610961914,0,0,25.575620651245117,1,1,1000,1000,1768451517.8401442,7.139643,7.1396429999999995,RCOU,8864786,1500,1500,1000,1500,0,0,0,0,0,0,0,0,0,0,1768451517.820152,7.119651
IMU,8904770,0,0.00016333558596670628,0.00010550339356996119,1.614942266314756e-05,-0.0009303726837970316,-0.0008771952707320452,-9.817194938659668,0,0,25.576915740966797,1,1,1000,1000,1768451517.860136,7.159635,7.159635,RCOU,8904770,1500,1500,1000,1500,0,0,0,0,0,0,0,0,0,0,1768451517.860136,7.159635
IMU,8924762,0,0.00013680792471859604,8.56752521940507e-05,9.654770110500976e-05,-0.001445709727704525,-0.0001869202242232859,-9.81816291809082,0,0,25.578210830688477,1,1,1000,1000,1768451517.8801281,7.179627,7.179627,RCOU,8944754,1500,1500,1000,1500,0,0,0,0,0,0,0,0,0,0,1768451517.90012,7.199619
IMU,8944754,1,0.0002834245387930423,0.00025170797016471624,7.615031790919602e-05,-0.0005011323955841362,0.0005313046276569366,-9.817061424255371,0,0,25.579505920410156,1,1,760,799,1768451517.90012,7.199619,7.199618999999999,RCOU,8944754,1500,1500,1000,1500,0,0,0,0,0,0,0,0,0,0,1768451517.90012,7.199619
IMU,8964746,0,7.399557216558605e-05,0.0001241767458850518,0.00012080934538971633,-0.0003433694364503026,-0.0009168674587272108,-9.817496299743652,0,0,25.580799102783203,1,1,1000,1000,1768451517.9201121,7.219611,7.219611,RCOU,8944754,1500,1500,1000,1500,0,0,0,0,0,0,0,0,0,0,1768451517.90012,7.199619
IMU,8984738,0,0.0001458990154787898,7.829135574866086e-05,0.0002154194808099419,-0.0017166663892567158,-9.22674807952717e-05,-9.817512512207031,0,0,25.582094192504883,1,1,1000,1000,1768451517.9401042,7.239603,7.239603,RCOU,8984738,1500,1500,1000,1500,0,0,0,0,0,0,0,0,0,0,1768451517.9401042,7.239603
IMU,9004730,1,0.00011216849088668823,-2.8885124265798368e-05,4.660736885853112e-05,-0.0012925810879096389,-0.0008535610395483673,-9.817160606384277,0,0,25.583389282226562,1,1,760,799,1768451517.9600961,7.259595,7.259595,RCOU,9024722,1500,1500,1000,1500,0,0,0,0,0,0,0,0,0,0,1768451517.9800882,7.279587
IMU,9024722,0,0.00014642579481005669,0.00015075238479766995,0.00022219883976504207,-0.000320026942063123,-7.384407581412233e-06,-9.816679000854492,0,0,25.58468246459961,1,1,1000,1000,1768451517.9800882,7.279587,7.279586999999999,RCOU,9024722,1500,1500,1000,1500,0,0,0,0,0,0,0,0,0,0,1768451517.9800882,7.279587
IMU,9044714,1,0.00013175939966458827,0.00024036559625528753,3.3593300031498075e-05,0.0007678684196434915,0.0005551794893108308,-9.817388534545898,0,0,25.58597755432129,1,1,760,799,1768451518.00008,7.299579,7.299579,RCOU,9024722,1500,1500,1000,1500,0,0,0,0,0,0,0,0,0,0,1768451517.9800882,7.279587
IMU,9064706,1,0.00038179935654625297,-3.084945092268754e-06,0.00019472009444143623,-0.0005197733989916742,0.0010818683076649904,-9.81667709350586,0,0,25.587270736694336,1,1,760,799,1768451518.0200722,7.319571,7.319571,RCOU,9064706,1500,1500,1000,1500,0,0,0,0,0,0,0,0,0,0,1768451518.0200722,7.319571
IMU,9084698,1,2.64076043094974e-05,-0.00015172993880696595,0.0001456004974897951,0.0018147260416299105,-0.0017277528531849384,-9.818215370178223,0,0,25.588565826416016,1,1,760,799,1768451518.040064,7.339563,7.339563,RCOU,9104690,1500,1500,1000,1500,0,0,0,0,0,0,0,0,0,0,1768451518.0600562,7.359555
IMU,9104690,0,0.00011610789078986272,0.00019062896899413317,0.00014525311416946352,-0.0015327980509027839,-0.0009016021504066885,-9.817407608032227,0,0,25.589860916137695,1,1,1000,1000,1768451518.0600562,7.359555,7.359554999999999,RCOU,9104690,1500,1500,1000,1500,0,0,0,0,0,0,0,0,0,0,1768451518.0600562,7.359555
IMU,9124682,1,4.0295562939718366e-06,0.00017876707715913653,0.00013036237214691937,-0.0012441595317795873,-0.0003711189783643931,-9.817358016967773,0,0,25.591154098510742,1,1,760,799,1768451518.080048,7.379547,7.379547,RCOU,9104690,1500,1500,1000,1500,0,0,0,0,0,0,0,0,0,0,1768451518.0600562,7.359555
IMU,9144674,0,0.00012658546620514244,0.000121164062875323,0.00011412629100959748,-0.0006800942355766892,-0.0006201276555657387,-9.816804885864258,0,0,25.59244728088379,1,1,999,999,1768451518.1000402,7.399539,7.399539,RCOU,9144674,1500,1500,1000,1500,0,0,0,0,0,0,0,0,0,0,1768451518.1000402,7.399539
IMU,9164666,0,6.935778947081417e-05,0.00011712194827850908,0.00011669007653836161,-0.0017741700867190957,-0.0008183859754353762,-9.81646728515625,0,0,25.59374237060547,1,1,999,999,1768451518.120032,7.419531,7.419531,RCOU,9184658,1500,1500,1000,1500,0,0,0,0,0,0,0,0,0,0,1768451518.1400242,7.439523
IMU,9184658,0,8.58048369991593e-05,0.00017392233712598681,0.0001462811342207715,-0.0004368713707663119,-0.0007801175815984607,-9.816576957702637,0,0,25.595035552978516,1,1,999,999,1768451518.1400242,7.439523,7.439522999999999,RCOU,9184658,1500,1500,1000,1500,0,0,0,0,0,0,0,0,0,0,1768451518.1400242,7.439523
IMU,9204650,1,0.00016507436521351337,7.187085429904982e-05,-3.440325235715136e-05,-0.0015373510541394353,-0.0006925229681655765,-9.817999839782715,0,0,25.596328735351562,1,1,760,799,1768451518.160016,7.459515,7.459515,RCOU,9184658,1500,1500,1000,1500,0,0,0,0,0,0,0,0,0,0,1768451518.1400242,7.439523
IMU,9224642,1,0.0004724455648101866,0.0002830080920830369,-1.2287164281588048e-06,1.3095173926558346e-05,0.0012719378573819995,-9.81673812866211,0,0,25.59762191772461,1,1,760,799,1768451518.1800082,7.479507,7.479507,RCOU,9224642,1500,1500,1000,1500,0,0,0,0,0,0,0,0,0,0,1768451518.1800082,7.479507
IMU,9244634,1,0.0002056695520877838,4.439372423803434e-05,0.00023082537518348545,-0.0030131086241453886,-0.00013655923248734325,-9.819025039672852,0,0,25.598915100097656,1,1,760,799,1768451518.2,7.499499,7.499498999999999,RCOU,9224642,1500,1500,1000,1500,0,0,0,0,0,0,0,0,0,0,1768451518.1800082,7.479507
IMU,9264626,0,7.62611161917448e-05,8.620198059361428e-05,0.00020230552763678133,-0.0011021154932677746,0.00025730417110025883,-9.817607879638672,0,0,25.600208282470703,1,1,999,999,1768451518.2199922,7.519491,7.5194909999999995,RCOU,9264626,1500,1500,1000,1500,0,0,0,0,0,0,0,0,0,0,1768451518.2199922,7.519491
IMU,9284618,0,0.00015760233509354293,4.213995998725295e-05,0.0001667921314947307,-0.0012300005182623863,-0.0008079044055193663,-9.817268371582031,0,0,25.601503372192383,1,1,999,999,1768451518.239984,7.539483,7.539483,RCOU,9264626,1500,1500,1000,1500,0,0,0,0,0,0,0,0,0,0,1768451518.2199922,7.519491
IMU,9304610,0,0.00011359236668795347,0.00014313848805613816,0.0001435992744518444,-0.00124628865160048,-0.001330764265730977,-9.81765365600586,0,0,25.60279655456543,1,1,999,999,1768451518.2599761,7.559475,7.559475,RCOU,9304610,1500,1500,1000,1500,0,0,0,0,0,0,0,0,0,0,1768451518.2599761,7.559475
IMU,9324602,1,0.0003923186450265348,-4.581920802593231e-05,0.0001307410711888224,-0.0023963048588484526,0.0008765546372160316,-9.81990909576416,0,0,25.604089736938477,1,1,760,799,1768451518.279968,7.579467,7.579466999999999,RCOU,9304610,1500,1500,1000,1500,0,0,0,0,0,0,0,0,0,0,1768451518.2599761,7.559475
IMU,9344594,0,0.0001410712138749659,0.00017679996381048113,0.00010860018664970994,-0.0003581426863092929,8.324902591994032e-05,-9.816828727722168,0,0,25.60538101196289,1,1,999,999,1768451518.2999601,7.599459,7.5994589999999995,RCOU,9344594,1500,1500,1000,1500,0,0,0,0,0,0,0,0,0,0,1768451518.2999601,7.599459
IMU,9364586,1,-0.0001330779487034306,1.2885899195680395e-05,5.2151452109683305e-05,-0.0017345142550766468,-0.0005542775033973157,-9.81645393371582,0,0,25.606674194335938,1,1,760,799,1768451518.3199522,7.619451,7.619451,RCOU,9344594,1500,1500,1000,1500,0,0,0,0,0,0,0,0,0,0,1768451518.2999601,7.599459
IMU,9384578,1,0.00016291637439280748,0.00014768964319955558,0.0001416398154105991,0.002063578926026821,-0.0022730412892997265,-9.817630767822266,0,0,25.607967376708984,1,1,760,799,1768451518.3399441,7.639443,7.639443,RCOU,9384578,1500,1500,1000,1500,0,0,0,0,0,0,0,0,0,0,1768451518.3399441,7.639443
IMU,9404570,1,0.0002264897048007697,-0.00014238969015423208,-3.810533962678164e-05,0.0003191032446920872,-0.0025660109240561724,-9.818821907043457,0,0,25.60926055908203,1,1,760,799,1768451518.3599362,7.659435,7.659434999999999,RCOU,9384578,1500,1500,1000,1500,0,0,0,0,0,0,0,0,0,0,1768451518.3399441,7.639443
IMU,9424562,1,0.00021272781305015087,0.0002368196874158457,0.0001853328722063452,-0.0015920826699584723,-0.0016790893860161304,-9.820043563842773,0,0,25.610553741455078,1,1,760,799,1768451518.379928,7.679427,7.679427,RCOU,9424562,1500,1500,1000,1500,0,0,0,0,0,0,0,0,0,0,1768451518.379928,7.679427
IMU,9444554,1,0.00015943386824801564,0.00022565454128198326,0.00010439555626362562,-0.0015197714092209935,0.00037505687214434147,-9.816045761108398,0,0,25.611845016479492,1,1,760,799,1768451518.3999202,7.699419,7.699419,RCOU,9424562,1500,1500,1000,1500,0,0,0,0,0,0,0,0,0,0,1768451518.379928,7.679427
IMU,9464546,1,0.00043313816422596574,0.00019433657871559262,-0.00011908604938071221,0.00018910711514763534,0.0008862452232278883,-9.816204071044922,0,0,25.61313819885254,1,1,760,799,1768451518.419912,7.719411,7.719411,RCOU,9464546,1500,1500,1000,1500,0,0,0,0,0,0,0,0,0,0,1768451518.419912,7.719411
IMU,9484538,1,0.00040924514178186655,7.271979848155752e-05,-0.0003770965849980712,0.0006906780181452632,5.11508114868775e-05,-9.81684398651123,0,0,25.614431381225586,1,1,760,799,1768451518.4399042,7.739403,7.739402999999999,RCOU,9464546,1500,1500,1000,1500,0,0,0,0,0,0,0,0,0,0,1768451518.419912,7.719411
IMU,9504530,1,0.0001292434026254341,0.00012528628576546907,0.00017421215306967497,-0.0008467409061267972,0.00035558638046495616,-9.816829681396484,0,0,25.615657806396484,1,1,760,799,1768451518.459896,7.759395,7.759395,RCOU,9504530,1500,1500,1000,1500,0,0,0,0,0,0,0,0,0,0,1768451518.459896,7.759395
IMU,9524522,1,5.637142021441832e-05,0.00013827932707499713,0.00025691630435176194,-0.0013994231121614575,-0.001319489092566073,-9.817733764648438,0,0,25.61695098876953,1,1,760,799,1768451518.4798882,7.779387,7.779387,RCOU,9504530,1500,1500,1000,1500,0,0,0,0,0,0,0,0,0,0,1768451518.459896,7.759395
IMU,9544514,0,0.0001728246279526502,0.00016600076924078166,0.00015405614976771176,-0.0008644491899758577,-0.0012282913085073233,-9.816991806030273,0,0,25.61830711364746,1,1,999,999,1768451518.49988,7.799379,7.799379,RCOU,9544514,1500,1500,1000,1500,0,0,0,0,0,0,0,0,0,0,1768451518.49988,7.799379
IMU,9564506,1,5.843710823683068e-05,0.00021560321329161525,0.0002047309826593846,-0.0020878566429018974,0.0005628009093925357,-9.81664752960205,0,0,25.619535446166992,1,1,760,799,1768451518.5198722,7.819371,7.819370999999999,RCOU,9544514,1500,1500,1000,1500,0,0,0,0,0,0,0,0,0,0,1768451518.49988,7.799379
IMU,9584498,0,0.00015557825099676847,0.00010425440268591046,0.00021957818535156548,0.00012056685227435082,-0.0007111133309081197,-9.816095352172852,0,0,25.620891571044922,1,1,999,999,1768451518.539864,7.839363,7.839363,RCOU,9584498,1500,1500,1000,1500,0,0,0,0,0,0,0,0,0,0,1768451518.539864,7.839363
IMU,9604490,0,0.0001679878041613847,0.00010008073877543211,0.00014558651309926063,-0.0005360906943678856,-0.0024561090394854546,-9.817107200622559,0,0,25.622182846069336,1,1,999,999,1768451518.5598562,7.859355,7.859355,RCOU,9624482,1500,1500,1000,1500,0,0,0,0,0,0,0,0,0,0,1768451518.579848,7.879347
IMU,9624482,0,0.00011444350820966065,0.00011816736514447257,0.00014650440425612032,-0.0014679516898468137,-0.001153115532360971,-9.81783676147461,0,0,25.623476028442383,1,1,999,999,1768451518.579848,7.879347,7.879346999999999,RCOU,9624482,1500,1500,1000,1500,0,0,0,0,0,0,0,0,0,0,1768451518.579848,7.879347
IMU,9644474,0,0.00012598592729773372,0.00018692812591325492,0.00018716711201705039,-0.0015105740167200565,-0.0007768607465550303,-9.818113327026367,0,0,25.624767303466797,1,1,999,999,1768451518.5998402,7.899339,7.8993389999999994,RCOU,9624482,1500,1500,1000,1500,0,0,0,0,0,0,0,0,0,0,1768451518.579848,7.879347
IMU,9664466,0,9.841134306043386e-05,0.00018565007485449314,9.963466436602175e-05,0.0001437145983800292,-0.0009572768467478454,-9.817856788635254,0,0,25.62605857849121,1,1,999,999,1768451518.619832,7.919331,7.919331,RCOU,9664466,1500,1500,1000,1500,0,0,0,0,0,0,0,0,0,0,1768451518.619832,7.919331
IMU,9684458,0,0.00010954231402138248,0.00014182174345478415,0.00021622779604513198,-0.0007634189096279442,-0.0011516786180436611,-9.817610740661621,0,0,25.627349853515625,1,1,999,999,1768451518.6398242,7.939323,7.939323,RCOU,9704450,1500,1500,1000,1500,0,0,0,0,0,0,0,0,0,0,1768451518.659816,7.959315
IMU,9704450,0,3.174597804900259e-05,0.0001787413057172671,7.491125870728865e-05,-0.0014724284410476685,-0.0008171509834937751,-9.81839370727539,0,0,25.62864112854004,1,1,999,999,1768451518.659816,7.959315,7.959314999999999,RCOU,9704450,1500,1500,1000,1500,0,0,0,0,0,0,0,0,0,0,1768451518.659816,7.959315
